acc_x, acc_y, angular_z, stamp, 
0.003815948963165283, 0.0016263723373413086, 9.19343596433371e-05, 1791227462006550826, 
-0.003369629383087158, 0.0036374330520629883, 9.423461470022709e-05, 1791227462036594987, 
0.0162961483001709, 0.008548617362976074, 9.443675304434657e-05, 1791227462066732615, 
-0.0016213655471801758, -0.018594324588775635, 9.416945358148471e-05, 1791227462096955774, 
0.012788176536560059, -0.004247784614562988, 9.515657696287499e-05, 1791227462126787124, 
0.0003209710121154785, -0.0004450678825378418, 9.121816098011e-05, 1791227462157906481, 
0.0002560615539550781, 0.01378333568572998, 8.794353570370412e-05, 1791227462190184610, 
-0.0177038311958313, -0.006084263324737549, 0.00010600632238812443, 1791227462217033049, 
-0.0067596435546875, 0.011772692203521729, 9.469663258416603e-05, 1791227462247088034, 
0.011398375034332275, -0.016861796379089355, 9.533012250435036e-05, 1791227462277099620, 
0.0005514025688171387, -0.001233518123626709, 9.54788032728937e-05, 1791227462307220556, 
-0.022537529468536377, 0.018666088581085205, 9.603543605204768e-05, 1791227462337244508, 
-0.023977696895599365, 0.0003871917724609375, 9.586277968696449e-05, 1791227462367400290, 
0.0176694393157959, 0.009047925472259521, 9.385943833371787e-05, 1791227462398358547, 
-0.027193725109100342, -0.013099253177642822, 9.296851182497344e-05, 1791227462429773801, 
-0.006866157054901123, -5.036592483520508e-05, 0.00010551852944696938, 1791227462457523296, 
-0.02643352746963501, 0.010517776012420654, 9.7849528910785e-05, 1791227462487600010, 
0.0329892635345459, 0.015626072883605957, 9.757855204595331e-05, 1791227462517683930, 
0.01523202657699585, -0.027354776859283447, 9.773838211570028e-05, 1791227462547794905, 
-0.03159463405609131, -0.007851958274841309, 9.774086034844134e-05, 1791227462577828877, 
-0.02400749921798706, 0.033944904804229736, 9.738447124124191e-05, 1791227462608125780, 
0.019258499145507812, -0.0005393624305725098, 9.855501845528025e-05, 1791227462638289673, 
0.004978656768798828, -0.018462955951690674, 9.235814935677276e-05, 1791227462670396789, 
0.003206193447113037, -0.02008378505706787, 0.00010130051677128445, 1791227462699669611, 
0.028289437294006348, 0.003082096576690674, 0.00010393681002437897, 1791227462728199924, 
0.0014289021492004395, 7.617473602294922e-05, 9.86646993870962e-05, 1791227462758179197, 
0.03174322843551636, 0.005535781383514404, 9.770505670832354e-05, 1791227462788224112, 
0.004210054874420166, -0.04691678285598755, 9.745767431801428e-05, 1791227462818268798, 
-0.03178173303604126, 0.03662329912185669, 9.662966772309828e-05, 1791227462848339570, 
-0.028419852256774902, 0.025211751461029053, 9.608391338938443e-05, 1791227462878503589, 
0.012888193130493164, -0.007153809070587158, 9.194030170108113e-05, 1791227462909946018, 
0.03245919942855835, -0.037473320960998535, 9.07037834291338e-05, 1791227462941817068, 
-0.023612797260284424, -0.02693885564804077, 0.00011151596985430683, 1791227462967673207, 
-0.005563616752624512, 0.025795817375183105, 9.300683507985223e-05, 1791227462998674933, 
-0.0038470029830932617, 0.014686405658721924, 8.073625321196414e-05, 1791227463022391643, 
0.02667391300201416, 0.0144386887550354, 0.00010872682182546508, 1791227463048842543, 
-0.013016760349273682, -0.023353755474090576, 9.617386025914348e-05, 1791227463078823371, 
-0.03080660104751587, -0.019144415855407715, 8.382968626755481e-05, 1791227463101753776, 
-0.012740135192871094, 0.0008589625358581543, 0.00010542425075730976, 1791227463129033294, 
0.023095786571502686, -0.006593227386474609, 9.57814301657646e-05, 1791227463159059187, 
0.006883859634399414, -0.04931527376174927, 9.563938085924266e-05, 1791227463189129681, 
0.006510794162750244, -0.015318334102630615, 9.496947911446626e-05, 1791227463219255393, 
0.017166972160339355, 0.017379403114318848, 9.460098308148693e-05, 1791227463249262186, 
-0.004603445529937744, 0.010326683521270752, 9.467627761888326e-05, 1791227463279323808, 
0.0036672353744506836, -0.012302041053771973, 9.127148576558199e-05, 1791227463310261936, 
-0.01628023386001587, -0.015095353126525879, 8.911867437530852e-05, 1791227463341696605, 
-0.029156148433685303, 0.013394832611083984, 0.00010003554880771856, 1791227463369626349, 
0.012240409851074219, 0.009723007678985596, 9.650856985253429e-05, 1791227463398654015, 
0.019661426544189453, -0.009626328945159912, 8.853680106828249e-05, 1791227463430295276, 
-0.004137575626373291, -0.010545492172241211, 9.353496316239457e-05, 1791227463460325374, 
-0.003967940807342529, 0.0224265456199646, 9.333833633104223e-05, 1791227463490338915, 
-0.0254400372505188, 0.014820694923400879, 9.329042279163202e-05, 1791227463520447723, 
-0.00014591217041015625, 0.005445659160614014, 9.351743299724227e-05, 1791227463550563094, 
0.008981883525848389, -0.016021907329559326, 9.070182433543422e-05, 1791227463581859749, 
-0.007249951362609863, -0.012648522853851318, 9.267746089235733e-05, 1791227463612569650, 
0.02180725336074829, 0.025653302669525146, 0.00010187012552759734, 1791227463640435216, 
0.007615625858306885, 0.013052225112915039, 9.513366627407683e-05, 1791227463670430604, 
-0.0013165473937988281, -0.0033797025680541992, 9.474202024204194e-05, 1791227463700549985, 
-0.004573047161102295, -0.010102450847625732, 9.514145692339371e-05, 1791227463730542924, 
-0.020381391048431396, 0.0007341504096984863, 9.586990518638197e-05, 1791227463760541119, 
-0.01782757043838501, 0.02813553810119629, 9.96205287520932e-05, 1791227463789634264, 
0.0006681084632873535, -0.014872372150421143, 9.04103406711502e-05, 1791227463822020777, 
-0.018988847732543945, -0.02763545513153076, 9.121942540452108e-05, 1791227463854201678, 
-0.030972540378570557, -0.004987835884094238, 0.00011028326320387586, 1791227463880752109, 
-0.014496207237243652, 0.003742516040802002, 9.88119130877025e-05, 1791227463910686391, 
0.009213626384735107, -0.007007002830505371, 9.904387472202416e-05, 1791227463940776189, 
0.014849185943603516, -0.00451284646987915, 9.898216970479322e-05, 1791227463970809466, 
-0.008668601512908936, -0.03582972288131714, 9.886968718060443e-05, 1791227464000876893, 
0.0009325742721557617, 0.004658341407775879, 9.904812712721929e-05, 1791227464030965328, 
0.004558980464935303, 0.027693867683410645, 9.674838333121326e-05, 1791227464061768990, 
0.0006834268569946289, -0.03413146734237671, 9.305499623657919e-05, 1791227464093795334, 
-0.022339582443237305, -0.015169858932495117, 0.00010747606419221137, 1791227464121455100, 
-0.016998291015625, 0.014910697937011719, 9.981623126569261e-05, 1791227464151312081, 
-0.020267844200134277, 0.006186187267303467, 9.916914939160312e-05, 1791227464181363866, 
0.05315810441970825, -0.005522012710571289, 9.847701923048052e-05, 1791227464211626886, 
-0.022028028964996338, -0.011680006980895996, 9.940768916272914e-05, 1791227464241531675, 
-0.010279476642608643, -0.006683290004730225, 6.53426887952659e-05, 1791227464271747711, 
0.1849399209022522, 0.04386681318283081, 0.002299219135904177, 1791227464302218147, 
1.0118236541748047, 0.5778419971466064, 0.04941843216293232, 1791227464333869575, 
1.2223503589630127, -0.07610917091369629, 0.28399145192220593, 1791227464361714515, 
0.2955079674720764, 0.033473074436187744, 0.26958677170210954, 1791227464391732511, 
0.7538858652114868, -0.03692042827606201, 0.2888894649036298, 1791227464421830853, 
0.023507118225097656, 0.4950621724128723, 0.36670748053247937, 1791227464451847966, 
0.5489488244056702, 0.22139543294906616, 0.4352713760046749, 1791227464481904766, 
0.34678685665130615, -0.11428767442703247, 0.5506301550682128, 1791227464511986749, 
0.6686288118362427, 0.44236546754837036, 0.6108146395951148, 1791227464542112635, 
0.6331948041915894, 0.4870620369911194, 0.6407511534318678, 1791227464574143946, 
0.47397077083587646, -0.06061506271362305, 0.7585924066832318, 1791227464605010986, 
-0.12358003854751587, -0.1804407835006714, 0.9042299846049835, 1791227464632287088, 
-0.041755080223083496, 0.23998278379440308, 0.8007617204174957, 1791227464662299853, 
-0.1424214243888855, 0.32590562105178833, 0.761445228876457, 1791227464692342087, 
-0.14492535591125488, 0.184933602809906, 0.7887633979506868, 1791227464722499990, 
-0.0010776519775390625, -0.020268559455871582, 0.8181602084273131, 1791227464752551156, 
-0.1600598692893982, 0.030526340007781982, 0.7774346347825486, 1791227464782704001, 
0.10829633474349976, 0.44244205951690674, 0.7372509107063467, 1791227464814288153, 
0.09319537878036499, -0.07782012224197388, 0.7310703253498705, 1791227464845844635, 
-0.058161020278930664, 0.024262189865112305, 0.8844296451238964, 1791227464872880855, 
-0.1423768401145935, 0.36478549242019653, 0.7892347159607132, 1791227464902868170, 
0.3769092559814453, 0.2644084095954895, 0.8105925458981327, 1791227464932881728, 
0.09173285961151123, 0.05200803279876709, 0.822140538204082, 1791227464963011200, 
-0.4111812114715576, -0.12239521741867065, 0.833095769720405, 1791227464993053308, 
0.16235744953155518, 0.45630067586898804, 0.8580030644598448, 1791227465023138988, 
-0.0952225923538208, 0.10262596607208252, 0.8963161560937929, 1791227465052798142, 
-0.0483015775680542, 0.19043540954589844, 0.7597553670422296, 1791227465085906604, 
-0.2621157765388489, -0.06014096736907959, 0.889845935320154, 1791227465113356193, 
0.11047911643981934, -0.44154638051986694, 0.8488119131173706, 1791227465143371629, 
0.0857318639755249, 0.10474300384521484, 0.834268640486113, 1791227465173428993, 
-0.3984444737434387, 0.7836459875106812, 0.7937698440904021, 1791227465203534117, 
-0.5104120373725891, -0.12928307056427002, 0.7742004929777894, 1791227465233592552, 
-0.024449706077575684, -0.5297096371650696, 0.7611621588208175, 1791227465263679846, 
0.47197985649108887, 0.270857572555542, 0.7424455464232005, 1791227465293788024, 
-0.055149853229522705, 0.5386571288108826, 0.6881521708150645, 1791227465326286509, 
0.13307994604110718, -0.16621840000152588, 0.8228838543532646, 1791227465353998432, 
-0.06668871641159058, 0.042261600494384766, 0.7937102740009077, 1791227465383895830, 
0.020066440105438232, 0.34617966413497925, 0.7806166924788744, 1791227465413938759, 
-0.492212176322937, 0.04954719543457031, 0.7023311049529768, 1791227465436047025, 
0.20876353979110718, -0.2340417504310608, 0.8339741192269539, 1791227465474132332, 
0.08147460222244263, 0.4438384771347046, 0.7711860780971584, 1791227465504204078, 
-0.17236977815628052, 0.3121533989906311, 0.7689839911867073, 1791227465534271769, 
-0.18333423137664795, -0.08231252431869507, 0.7575651254276848, 1791227465565876463, 
-0.02106863260269165, 0.3334730863571167, 0.7806113506688477, 1791227465596825196, 
-0.13455694913864136, 0.18472075462341309, 0.8479225132013475, 1791227465624452938, 
-0.2685856819152832, -0.3560476303100586, 0.7867993609665224, 1791227465654790992, 
-0.09908866882324219, -0.35799306631088257, 0.8343035352625308, 1791227465684625777, 
0.24442756175994873, 0.6697237491607666, 0.8039341604045969, 1791227465714690595, 
6.264448165893555e-05, 0.34345734119415283, 0.7676015995545591, 1791227465745471203, 
-0.4634491205215454, -0.3362739086151123, 0.8041681250025625, 1791227465775492806, 
-0.09815150499343872, 0.01505887508392334, 0.7998562951863787, 1791227465806173191, 
0.04354846477508545, 0.011098980903625488, 0.7425743204129709, 1791227465838419533, 
-0.026628196239471436, -0.5064640045166016, 0.913049465253265, 1791227465864650125, 
0.039589524269104004, 0.36982643604278564, 0.7784008923081736, 1791227465895614981, 
-0.28014570474624634, 0.408677339553833, 0.7871057771749997, 1791227465925613391, 
-0.49292856454849243, -0.09600645303726196, 0.7477613480038404, 1791227465955616212, 
0.24521970748901367, -0.22027629613876343, 0.7604868417618358, 1791227465985561701, 
0.05143338441848755, 0.6911509037017822, 0.7944888071804885, 1791227466015571705, 
0.12553972005844116, 0.13060790300369263, 0.779305465721047, 1791227466046193300, 
-0.2278766632080078, -0.17053133249282837, 0.7582487407521151, 1791227466078280712, 
0.17502903938293457, 0.08022022247314453, 0.8836025796337292, 1791227466105703754, 
0.2810806632041931, 0.28194886445999146, 0.7853203421758214, 1791227466135723802, 
-0.21054989099502563, -0.13283270597457886, 0.7670821500358511, 1791227466165801389, 
0.10220009088516235, -0.012274563312530518, 0.7847432207732754, 1791227466195788310, 
-0.018756747245788574, 0.4234456419944763, 0.7702306517993003, 1791227466225960217, 
0.1286194920539856, 0.0942922830581665, 0.7688689513597414, 1791227466255809079, 
-0.8827164173126221, -0.05397254228591919, 0.775586113705213, 1791227466286314330, 
-0.40861374139785767, -0.08182913064956665, 0.773174741222571, 1791227466318005890, 
0.1988040804862976, 0.48741865158081055, 0.8555808354865104, 1791227466346113369, 
0.5669474601745605, -0.23369085788726807, 0.7907525289721244, 1791227466376113779, 
0.253412663936615, -0.19857102632522583, 0.8118334122752991, 1791227466406194423, 
0.20237761735916138, 0.4590519666671753, 0.8334560818770018, 1791227466436227926, 
-0.2778733968734741, 0.3089976906776428, 0.8441307734302872, 1791227466465289888, 
0.115287184715271, -0.18162357807159424, 0.775581978540825, 1791227466496326396, 
-0.46729743480682373, -0.12147516012191772, 0.804003915932205, 1791227466526423669, 
0.21194380521774292, 0.175592839717865, 0.7810018820193548, 1791227466558124363, 
-0.08821183443069458, 0.27519291639328003, 0.9121834862724801, 1791227466585654285, 
-0.1440224051475525, 0.14610695838928223, 0.8169921809127366, 1791227466615659875, 
-0.3549842834472656, -0.1660582423210144, 0.7851587178052443, 1791227466646705684, 
-0.42857587337493896, -0.03745239973068237, 0.8268703730760536, 1791227466676742491, 
-0.0351872444152832, 0.008224666118621826, 0.8267886520511195, 1791227466706793948, 
0.44004708528518677, 0.48054784536361694, 0.8153391017626765, 1791227466736863597, 
-0.024559736251831055, 0.24084657430648804, 0.784843692566152, 1791227466766929587, 
-0.016092360019683838, -0.22472363710403442, 0.7633200109328528, 1791227466798516041, 
-0.038928449153900146, -0.1589186191558838, 0.7931165049517879, 1791227466829854296, 
0.012394249439239502, 0.5563411116600037, 0.8907714477548727, 1791227466857186809, 
-0.08863401412963867, -0.0005182027816772461, 0.7648532363173051, 1791227466887277627, 
-0.11606693267822266, -0.16316628456115723, 0.8086635948579132, 1791227466916292249, 
0.08210283517837524, 0.21995645761489868, 0.7676575100695069, 1791227466947336903, 
-0.33413445949554443, 0.2092464566230774, 0.7847702316413184, 1791227466977396935, 
-0.38527387380599976, 0.006124675273895264, 0.7813343349384866, 1791227467007471258, 
-0.2762607932090759, -0.3325660824775696, 0.7818991435496142, 1791227467038285884, 
0.1298915147781372, 0.3952462077140808, 0.7469613422829084, 1791227467070041079, 
-0.11717957258224487, 0.05305516719818115, 0.8506313295243538, 1791227467097729464, 
0.041331350803375244, -0.231450617313385, 0.7988216762666921, 1791227467127726247, 
-0.10225176811218262, 0.0643797516822815, 0.8212192821455836, 1791227467157814654, 
-0.19344300031661987, 0.33989083766937256, 0.8323291801218393, 1791227467187833795, 
-0.1522136926651001, -0.24923062324523926, 0.823814758347943, 1791227467217895447, 
-0.232785165309906, -0.23135727643966675, 0.8147161485044976, 1791227467248023861, 
0.12411868572235107, 0.444175124168396, 0.7936781743737191, 1791227467278152171, 
-0.26706069707870483, 0.34764134883880615, 0.7359364786745831, 1791227467310619800, 
-0.4017449617385864, -0.24115991592407227, 0.8246793932536938, 1791227467339935561, 
-0.022532165050506592, -0.2657340168952942, 0.8635324481055937, 1791227467367356798, 
-0.2872229814529419, 0.7270176410675049, 0.7707197857801367, 1791227467398433675, 
-0.23330259323120117, -0.030030488967895508, 0.8120518481343686, 1791227467428485609, 
0.11438769102096558, 0.10591280460357666, 0.8152197011501215, 1791227467458682214, 
0.11612582206726074, 0.5949878692626953, 0.8084654884372965, 1791227467488695171, 
-0.1708981990814209, -0.2645356059074402, 0.7600203904750609, 1791227467518622419, 
-0.22662663459777832, -0.4089750051498413, 0.7556609847020921, 1791227467550066052, 
0.3138209581375122, 0.5043101906776428, 0.7808539422668698, 1791227467581834944, 
-0.12430757284164429, 0.3008521795272827, 0.9046780808722371, 1791227467608844441, 
0.2635400891304016, -0.1654224395751953, 0.7756686377247639, 1791227467638822750, 
-0.10325109958648682, -0.012468934059143066, 0.774510624979478, 1791227467668871828, 
-0.043534696102142334, 0.16946303844451904, 0.7950837621841872, 1791227467699052295, 
-0.6957527995109558, 0.16115546226501465, 0.7664147931326262, 1791227467729029578, 
-0.21323728561401367, -0.17386329174041748, 0.7688760996366919, 1791227467759195057, 
0.3566043972969055, 0.051268815994262695, 0.7707491882206395, 1791227467790173596, 
0.033227741718292236, 0.5748888850212097, 0.7524815301926184, 1791227467821797364, 
0.015057861804962158, -0.431479275226593, 0.8607575581108826, 1791227467849405433, 
0.11679905652999878, 0.043326616287231445, 0.7966041583425382, 1791227467879369029, 
-0.04753607511520386, 0.2724514603614807, 0.7784946894783341, 1791227467909471183, 
-0.13757526874542236, 0.02695012092590332, 0.7851088733975137, 1791227467939526261, 
-0.043212890625, -0.031772494316101074, 0.8057499452551943, 1791227467969590967, 
0.455321729183197, 0.1763972043991089, 0.8242096098358681, 1791227467999749037, 
0.07478010654449463, 0.32842856645584106, 0.7749721133268989, 1791227468030371095, 
-0.5657353401184082, -0.3065189719200134, 0.7343881061910853, 1791227468062039657, 
-0.6278239488601685, -0.2096017599105835, 0.8459110654757225, 1791227468089883889, 
-0.3665897846221924, 0.6946449279785156, 0.7840668532937783, 1791227468120583933, 
-0.07436978816986084, 0.3183722496032715, 0.8060784643264696, 1791227468150523707, 
0.15675288438796997, -0.3176485300064087, 0.8341287905584703, 1791227468180631794, 
0.39918631315231323, -0.07654154300689697, 0.8676935434850273, 1791227468210583909, 
0.004292130470275879, 0.32943910360336304, 0.8135018780730034, 1791227468240765791, 
-0.20003485679626465, 0.2850061058998108, 0.7686473618538634, 1791227468271087061, 
-0.018673717975616455, -0.15947717428207397, 0.7559637858659994, 1791227468302039788, 
-0.0890703797340393, -0.0344427227973938, 0.7863856884720156, 1791227468332222960, 
0.07437103986740112, 0.20568281412124634, 0.8456566912530155, 1791227468360755328, 
-0.4033745527267456, 0.23543065786361694, 0.8040099244612012, 1791227468390717007, 
-0.17477989196777344, -0.09667980670928955, 0.782309840495444, 1791227468420859755, 
-0.31191325187683105, 0.3391823172569275, 0.7841437794880044, 1791227468450880486, 
-0.2823594808578491, 0.06178957223892212, 0.7803535318237943, 1791227468481151561, 
-0.26635050773620605, -0.316566526889801, 0.799858417916131, 1791227468510946374, 
0.005172669887542725, 0.10767948627471924, 0.7575378543945738, 1791227468542065985, 
-0.0066950321197509766, 0.20256006717681885, 0.7329300670274942, 1791227468574225261, 
0.4421478509902954, 0.18057090044021606, 0.8900438885720586, 1791227468601039654, 
-0.5116990804672241, 0.011058449745178223, 0.7808795444085742, 1791227468631004930, 
0.18066507577896118, 0.1665114164352417, 0.7730619218720687, 1791227468661089644, 
-0.5083997249603271, -0.0232313871383667, 0.7843954033224496, 1791227468691171974, 
-0.2053120732307434, 0.06307286024093628, 0.7955638382470879, 1791227468721291011, 
-0.38889485597610474, -0.008517444133758545, 0.815463960756016, 1791227468751322472, 
-0.5197713971138, 0.1604100465774536, 0.8183816806493669, 1791227468781542768, 
0.4148412346839905, 0.4040312170982361, 0.7744423793904942, 1791227468814063131, 
-0.372903048992157, 0.06576937437057495, 0.9390025307622731, 1791227468840642841, 
-0.03415274620056152, -0.13819843530654907, 0.7936080814924475, 1791227468871593053, 
-0.10795038938522339, -0.1771615743637085, 0.8349401372171422, 1791227468900640055, 
0.1293199062347412, 0.23952287435531616, 0.7739837591149143, 1791227468931928852, 
0.22578060626983643, 0.3741539716720581, 0.8127760733568341, 1791227468961801644, 
-0.11121165752410889, 0.04677736759185791, 0.7834839313592228, 1791227468992107388, 
-0.4175402522087097, -0.19269078969955444, 0.7831780156340832, 1791227469022089589, 
-0.1726183295249939, -0.010917723178863525, 0.707813898513336, 1791227469054404282, 
0.16161507368087769, 0.09988713264465332, 0.7727278651745605, 1791227469084275154, 
-0.03311187028884888, -0.01766037940979004, 0.8202393349948449, 1791227469122256530, 
0.047811806201934814, 0.49883705377578735, 0.778802694527206, 1791227469152397198, 
0.1510959267616272, 0.06640112400054932, 0.7911511884078439, 1791227469182281527, 
0.05131036043167114, 0.037924885749816895, 0.7687040206771155, 1791227469214075749, 
0.14804154634475708, 0.0973426103591919, 0.8166247205430511, 1791227469245054058, 
-0.29759979248046875, 0.2616615295410156, 0.9038393880008246, 1791227469271987644, 
0.20821255445480347, 0.15562403202056885, 0.761709787003006, 1791227469302493242, 
-0.1702117919921875, -0.3368198275566101, 0.7883050170498346, 1791227469332560543, 
0.17274731397628784, 0.37638020515441895, 0.8206055358804808, 1791227469362704178, 
-0.36582493782043457, 0.3729243874549866, 0.7924470616154169, 1791227469392782101, 
0.11870890855789185, -0.06471747159957886, 0.7560826349820782, 1791227469422870394, 
-0.15055721998214722, -0.11487102508544922, 0.7369773447262133, 1791227469454094877, 
-0.00790935754776001, 0.4662834405899048, 0.7435568194300988, 1791227469486680367, 
-0.47855865955352783, -0.007079422473907471, 0.9211571794718644, 1791227469513017677, 
0.03834050893783569, -0.20830345153808594, 0.8098409449781182, 1791227469543021524, 
0.826702356338501, 0.09864002466201782, 0.7976550156029033, 1791227469573096407, 
0.8272541761398315, 0.5524923801422119, 0.7890325742993497, 1791227469603181006, 
-0.617344319820404, 0.18971842527389526, 0.7905508485728542, 1791227469633258797, 
-0.10792553424835205, -0.3138955235481262, 0.8214102221533516, 1791227469663312978, 
0.1076958179473877, 0.4250675439834595, 0.8121628587832281, 1791227469694081703, 
-0.6001095771789551, 0.709826648235321, 0.7631024942509665, 1791227469725675054, 
0.08702361583709717, -0.2088911533355713, 0.8602512135995181, 1791227469753566314, 
-0.4069332480430603, -0.24934613704681396, 0.8140039878646056, 1791227469783537496, 
0.8710685968399048, 0.3352302312850952, 0.7652233009068184, 1791227469813633639, 
-0.392093300819397, 0.30110275745391846, 0.7399243236331767, 1791227469843695099, 
-0.2596690058708191, -0.250468909740448, 0.7879647039204417, 1791227469873853027, 
-0.21563702821731567, -0.043257296085357666, 0.8394912851580574, 1791227469903846933, 
0.2078961730003357, 0.6518658399581909, 0.7738391087569614, 1791227469934835986, 
0.022573411464691162, -0.03696608543395996, 0.732646899923933, 1791227469966136306, 
-0.03578299283981323, -0.2636770009994507, 0.8577086850490779, 1791227469994058136, 
0.30957692861557007, 0.7518222332000732, 0.7963147561041328, 1791227470024074842, 
-0.21166729927062988, 0.24563473463058472, 0.763226496028307, 1791227470054240480, 
0.054350316524505615, -0.21465635299682617, 0.7848534248501794, 1791227470084239103, 
-0.17868834733963013, 0.14229774475097656, 0.7880346977386704, 1791227470114328671, 
0.24842160940170288, 0.17849218845367432, 0.7808194651352036, 1791227470144391551, 
0.11787015199661255, 0.39119619131088257, 0.7793775212881925, 1791227470174447593, 
-0.07344651222229004, -0.29897648096084595, 0.7545513204061485, 1791227470206121619, 
-0.3210309147834778, 0.33948320150375366, 0.7840760473849872, 1791227470237061340, 
-0.3446922302246094, 0.29324740171432495, 0.9141587729572582, 1791227470263653826, 
-0.185533344745636, -0.10185235738754272, 0.791682582297437, 1791227470294726421, 
0.30508679151535034, 0.15228497982025146, 0.8014318045852161, 1791227470324767996, 
0.13391578197479248, 0.4105466604232788, 0.7836308098873036, 1791227470354837589, 
-0.05605137348175049, 0.10396552085876465, 0.7992736152577916, 1791227470384886291, 
-0.08455371856689453, 0.07909977436065674, 0.8147116907838569, 1791227470414967878, 
-0.48077601194381714, 0.24416089057922363, 0.7498695037758265, 1791227470446583545, 
0.3229730725288391, -0.1284235119819641, 0.7395729964670557, 1791227470478393422, 
-0.11902642250061035, 0.1759932041168213, 0.9026427076867428, 1791227470505182027, 
0.29571717977523804, 0.45503532886505127, 0.8195995426656608, 1791227470535358577, 
-0.4570940136909485, 0.3666541576385498, 0.8131194377743055, 1791227470565298708, 
0.33473724126815796, -0.5193687081336975, 0.7924933861553033, 1791227470595368548, 
-0.5111398100852966, 0.055998265743255615, 0.7806895656930809, 1791227470625493644, 
-0.044325947761535645, 0.6871693134307861, 0.7899078921132647, 1791227470655604003, 
-0.47026675939559937, 0.510348916053772, 0.7803779176721266, 1791227470686169173, 
-0.11150532960891724, -0.1993544101715088, 0.7419803293276043, 1791227470718344073, 
-0.015184462070465088, 0.20663535594940186, 0.8751450330727527, 1791227470745844142, 
0.042230188846588135, 0.31105315685272217, 0.7891864674898872, 1791227470775788005, 
-0.2811371088027954, -0.07864272594451904, 0.7714780908268656, 1791227470805823877, 
-0.22949928045272827, 0.1064988374710083, 0.7635381333025217, 1791227470835880238, 
0.02844899892807007, 0.3593917489051819, 0.7858575604353364, 1791227470865928012, 
0.42490410804748535, 0.18218332529067993, 0.8273496054535705, 1791227470896013727, 
-0.1422710418701172, 0.08953744173049927, 0.8267717625727484, 1791227470926221891, 
0.2239648699760437, 0.07552152872085571, 0.7250713891560944, 1791227470959097994, 
-0.3957371115684509, 0.23874497413635254, 0.8679724005693401, 1791227470986338906, 
0.33442938327789307, 0.16427546739578247, 0.8291339709021761, 1791227471016284749, 
-0.19032526016235352, -0.09767508506774902, 0.8233135075842056, 1791227471046369013, 
-0.209661066532135, 0.47491174936294556, 0.7827091665361288, 1791227471076394356, 
0.2982172966003418, 0.3621320128440857, 0.7807763996302912, 1791227471106479215, 
-0.08165329694747925, -0.2132236361503601, 0.8156278763815528, 1791227471136542011, 
-0.28012412786483765, 0.07992178201675415, 0.8123079462763627, 1791227471166593239, 
-0.5488283038139343, 0.2077234983444214, 0.7502685621489906, 1791227471198604553, 
0.5988983511924744, 0.22092127799987793, 0.7725824305744453, 1791227471229312948, 
0.07148474454879761, 0.2984998822212219, 0.8577764527297465, 1791227471256898759, 
-0.09491091966629028, 0.27754032611846924, 0.7974615897203844, 1791227471286897290, 
-0.41591817140579224, -0.32090455293655396, 0.82679880960538, 1791227471316920963, 
0.01695692539215088, -0.08823180198669434, 0.8121947936425957, 1791227471346989530, 
0.18819141387939453, 0.621163547039032, 0.7904932255969233, 1791227471377081255, 
0.1967514157295227, 0.2875403165817261, 0.7876234400290686, 1791227471407156765, 
-0.3357638716697693, -0.11862850189208984, 0.77690614848503, 1791227471438314062, 
0.5413417816162109, 0.32374924421310425, 0.7440221129340737, 1791227471470858087, 
-0.20626360177993774, 0.371706485748291, 0.8758883996718854, 1791227471497374135, 
-0.34934520721435547, -0.20885950326919556, 0.7941259447261231, 1791227471527397230, 
0.08769577741622925, 0.06252670288085938, 0.7932702524477216, 1791227471557449320, 
0.3272819519042969, 0.4457680583000183, 0.7650148668738409, 1791227471587505369, 
0.03873920440673828, 0.18754130601882935, 0.7566527018599926, 1791227471617599800, 
-0.23929685354232788, -0.21597301959991455, 0.7973615600743836, 1791227471647702426, 
0.10571211576461792, -0.16882199048995972, 0.8019154626333312, 1791227471678538074, 
-0.7021311521530151, 0.9065940976142883, 0.7339925860385382, 1791227471710424285, 
-0.09667015075683594, -0.1302119493484497, 0.8443012606084949, 1791227471737890234, 
0.13586574792861938, -0.11328041553497314, 0.8195581104698861, 1791227471767898697, 
0.5322971343994141, 0.6978715062141418, 0.8083787627493753, 1791227471797973340, 
-0.09618747234344482, 0.23928624391555786, 0.7931936031144676, 1791227471828043194, 
-0.05396437644958496, -0.39620494842529297, 0.8058093767099238, 1791227471858110234, 
-0.18633848428726196, -0.13723939657211304, 0.8128871176996552, 1791227471888203023, 
0.16095149517059326, 0.7099962830543518, 0.778724113196495, 1791227471918835282, 
-0.05625569820404053, 0.2516013979911804, 0.7351832430712432, 1791227471950721907, 
-0.04892510175704956, -0.25859278440475464, 0.8095182029610928, 1791227471980975699, 
-0.014096736907958984, 0.11988162994384766, 0.89224343736344, 1791227472008394031, 
-0.19575119018554688, 0.5479496121406555, 0.7983733980476819, 1791227472038499999, 
-0.4287290573120117, -0.05568140745162964, 0.7890907833329617, 1791227472068538051, 
0.06821000576019287, 0.01372838020324707, 0.8223539789483266, 1791227472097664072, 
0.30409687757492065, 0.2609240412712097, 0.7437307494580333, 1791227472128739540, 
0.27939099073410034, 0.22632908821105957, 0.7713569358890605, 1791227472158826865, 
-0.01082688570022583, -0.0794416069984436, 0.7510667952201666, 1791227472190678662, 
-0.1928873062133789, 0.26755887269973755, 0.7720237801934314, 1791227472222231905, 
0.12288075685501099, 0.29926133155822754, 0.8779212082103495, 1791227472249026207, 
0.2304079532623291, 0.03946816921234131, 0.7757250768023343, 1791227472279117017, 
0.4098253846168518, 0.2141755223274231, 0.7929101471970056, 1791227472309423341, 
-0.09618997573852539, 0.3015468120574951, 0.8031516997985313, 1791227472339294860, 
0.16944271326065063, -0.09631359577178955, 0.7847665921256882, 1791227472369369149, 
0.08640575408935547, -0.4263979196548462, 0.7825436449884466, 1791227472399352731, 
0.11378175020217896, 0.6951103210449219, 0.7436943628235598, 1791227472430844168, 
-0.033694684505462646, 0.2514726519584656, 0.7316026492083489, 1791227472462270096, 
0.1431865096092224, -0.022247791290283203, 0.8544199624336375, 1791227472489543151, 
-0.15070128440856934, 0.4199746251106262, 0.8363566888838233, 1791227472518581266, 
0.1232956051826477, 0.18603038787841797, 0.779643224475096, 1791227472549695408, 
-0.1215064525604248, -0.3993925452232361, 0.8116519864144197, 1791227472579705895, 
-0.20291566848754883, 0.15039992332458496, 0.7976012126819351, 1791227472609822138, 
0.2036064863204956, 0.6186581254005432, 0.8011106589611079, 1791227472639884468, 
0.058403611183166504, 0.09563374519348145, 0.8277715998989224, 1791227472669651173, 
0.13647401332855225, -0.24604249000549316, 0.7690233654922305, 1791227472702270294, 
-0.2969866394996643, 0.07874912023544312, 0.8926154630551449, 1791227472730109028, 
0.3153247833251953, 0.19922363758087158, 0.7869889448090841, 1791227472760729335, 
-0.502640426158905, 0.3951418399810791, 0.8036870452032018, 1791227472790787547, 
0.5869365930557251, -0.005764305591583252, 0.8174671744415827, 1791227472820807930, 
-0.21126234531402588, 0.11578792333602905, 0.7927182007743421, 1791227472850866197, 
0.2259419560432434, 0.30854177474975586, 0.7738380772731194, 1791227472880848889, 
-0.006075799465179443, 0.15425777435302734, 0.7803811015815011, 1791227472910981804, 
0.013590037822723389, 0.05472517013549805, 0.7563184293723193, 1791227472942618306, 
-0.4102784991264343, -0.052369534969329834, 0.7984277840408524, 1791227472973130043, 
0.05540674924850464, 0.2909594774246216, 0.8764160967845697, 1791227473000984752, 
0.3025694489479065, 0.010227322578430176, 0.8026730279289279, 1791227473030955694, 
-0.272283673286438, 0.07771313190460205, 0.7062236714733524, 1791227473053239286, 
-0.006575584411621094, 0.22015047073364258, 0.8543410144046337, 1791227473081068402, 
-0.28110361099243164, 0.018958449363708496, 0.8015159171579773, 1791227473111098047, 
0.34695786237716675, -0.06748038530349731, 0.6922565455052957, 1791227473134227436, 
0.3256756067276001, 0.27766162157058716, 0.869294517304141, 1791227473161236066, 
-0.07323622703552246, 0.28849345445632935, 0.7847613169433063, 1791227473191167669, 
-0.26439887285232544, -0.14709621667861938, 0.7862320840381462, 1791227473221209348, 
-0.12555646896362305, 0.31792670488357544, 0.7862752064282542, 1791227473251226538, 
0.08617502450942993, 0.13626885414123535, 0.7863908519896462, 1791227473281272422, 
-0.15777403116226196, -0.034693360328674316, 0.8154596450183641, 1791227473311383403, 
-0.10749739408493042, 0.016930103302001953, 0.7919590545027057, 1791227473342572659, 
-0.1993865966796875, 0.33615392446517944, 0.7666092960101552, 1791227473374523099, 
0.2870579957962036, 0.328899085521698, 0.8675685629346102, 1791227473401526891, 
-0.3521053194999695, -0.39144355058670044, 0.8235185714758482, 1791227473431557715, 
0.25847089290618896, -0.0010473132133483887, 0.8750371072588847, 1791227473460594932, 
-0.010406732559204102, 0.43632006645202637, 0.7934579888389038, 1791227473491696518, 
0.21189647912979126, 0.4410884380340576, 0.8013122747999942, 1791227473521823011, 
-0.03735029697418213, -0.3066919445991516, 0.8087311712163502, 1791227473551890848, 
0.012838900089263916, -0.023823797702789307, 0.7790916403130167, 1791227473582826419, 
-0.313936710357666, 0.5374739766120911, 0.7434493653208183, 1791227473614345491, 
0.08944880962371826, 0.22919607162475586, 0.8421768314829361, 1791227473642049090, 
-0.37215256690979004, -0.2105732560157776, 0.7786065499721466, 1791227473672121786, 
-0.06726157665252686, 0.2633712887763977, 0.7879065911432405, 1791227473702160105, 
-0.3008228540420532, 0.018685758113861084, 0.7898345104697267, 1791227473732354853, 
0.472320020198822, 0.03451794385910034, 0.807261314676135, 1791227473762336289, 
0.09986209869384766, 0.33912193775177, 0.7605524165588113, 1791227473792395833, 
-0.11988258361816406, 0.018787741661071777, 0.7485592545920234, 1791227473822552087, 
-0.06302595138549805, -0.09845024347305298, 0.7352787449593373, 1791227473854298089, 
-0.09973114728927612, -0.061032235622406006, 0.7842589867701327, 1791227473885145253, 
0.34800106287002563, 0.3743721842765808, 0.8485300918477425, 1791227473912769540, 
-0.07399135828018188, 0.09955710172653198, 0.7737549964526882, 1791227473942835686, 
-0.17610883712768555, -0.2537035346031189, 0.8087180467910727, 1791227473972922280, 
0.12097591161727905, 0.5664869546890259, 0.8020990479724073, 1791227474002907108, 
0.11247628927230835, -0.012753725051879883, 0.7427884831654692, 1791227474032962843, 
-0.6170669198036194, -0.29276466369628906, 0.7652250267012394, 1791227474062979566, 
-0.0981934666633606, 0.48839765787124634, 0.769053181973211, 1791227474095053989, 
-0.14754271507263184, 0.38969600200653076, 0.7897178017966223, 1791227474126489131, 
-0.19437134265899658, -0.39930009841918945, 0.8966858305982066, 1791227474153263085, 
-0.12677204608917236, -0.21383953094482422, 0.8257012753205234, 1791227474183233130, 
0.4856811761856079, 0.8009287118911743, 0.8350006721370192, 1791227474213318635, 
0.16598880290985107, 0.34566807746887207, 0.8036680523869878, 1791227474243388221, 
-0.01102679967880249, -0.32092052698135376, 0.7969641938222833, 1791227474273437017, 
-0.2358185052871704, -0.6209418177604675, 0.8079080061725545, 1791227474303500568, 
-0.3647273778915405, 0.6389365792274475, 0.7853600476535278, 1791227474334316156, 
0.21454459428787231, 0.2914479970932007, 0.7227447503082693, 1791227474366423763, 
-0.20027798414230347, -0.06790655851364136, 0.8302753736176749, 1791227474393788557, 
-0.18335020542144775, 0.036338210105895996, 0.7584071611145276, 1791227474423780223, 
-0.5293492078781128, 0.17823582887649536, 0.7832583565639091, 1791227474453869627, 
-0.07499361038208008, 0.11176872253417969, 0.8380894574726928, 1791227474483914709, 
-0.1689351201057434, 0.2616475820541382, 0.8514598832168926, 1791227474513960628, 
0.2783362865447998, 0.009781420230865479, 0.7831428494841449, 1791227474543999017, 
0.40272289514541626, -0.23664146661758423, 0.7306412966088066, 1791227474574792922, 
0.06153237819671631, -0.036389172077178955, 0.7230293354091237, 1791227474606774455, 
0.12108153104782104, 0.44566482305526733, 0.8736836115791137, 1791227474634257949, 
-0.3542100191116333, 0.07658684253692627, 0.7776090252105764, 1791227474664355914, 
-0.0569838285446167, -0.15946125984191895, 0.7892131034682627, 1791227474694346264, 
-0.15844333171844482, 0.3102756142616272, 0.8217481846023279, 1791227474724488501, 
-0.041516125202178955, 0.09076416492462158, 0.8131279789294614, 1791227474754480232, 
-0.18799269199371338, 0.1211349368095398, 0.7893132165966638, 1791227474784520023, 
-0.22543543577194214, -0.25935685634613037, 0.8168516397888619, 1791227474813648955, 
-0.040314555168151855, 0.26401734352111816, 0.7462985645562268, 1791227474846377026, 
0.10130596160888672, 0.20685315132141113, 0.8121896861911159, 1791227474876756418, 
-0.1422330141067505, 0.18809789419174194, 0.8783279783067149, 1791227474904903733, 
0.5006256699562073, 0.03502136468887329, 0.8117852904916019, 1791227474934929479, 
-0.0801095962524414, -0.07623356580734253, 0.800983381193909, 1791227474964932285, 
0.2779896855354309, -0.01804828643798828, 0.7927625621185308, 1791227474995011165, 
-0.12481498718261719, 0.2739141583442688, 0.7909582865512425, 1791227475025052772, 
-0.32186704874038696, 0.3722970485687256, 0.7729118889562605, 1791227475055201648, 
-0.14256799221038818, -0.20327270030975342, 0.7881925647259648, 1791227475086382284, 
-0.21945160627365112, 0.015258610248565674, 0.777095584907144, 1791227475119021499, 
-0.1782861351966858, -0.009387373924255371, 0.9543548184647312, 1791227475145334965, 
-0.45231175422668457, 0.38569778203964233, 0.8090711271116272, 1791227475175517740, 
0.13207000494003296, 0.1492655873298645, 0.8008834345445512, 1791227475205440352, 
-0.20506048202514648, -0.3179522156715393, 0.808606720063728, 1791227475235525311, 
0.2740025520324707, 0.2542382478713989, 0.7906615197017186, 1791227475265570945, 
-0.12355548143386841, 0.28839051723480225, 0.7993220955054201, 1791227475294651916, 
0.17105895280838013, -0.1292514204978943, 0.7503573272109687, 1791227475325702847, 
-0.05975288152694702, -0.042039453983306885, 0.7224725935656808, 1791227475358624035, 
0.10843473672866821, 0.48823148012161255, 0.8565944182697296, 1791227475385962610, 
-0.4799741506576538, 0.1288183331489563, 0.767029199890163, 1791227475415940383, 
0.04212707281112671, -0.20889216661453247, 0.786733525457179, 1791227475446006094, 
-0.23722493648529053, -0.005583226680755615, 0.8010091658268972, 1791227475476055123, 
-0.31561189889907837, 0.6233059763908386, 0.8329120092146624, 1791227475506198448, 
-0.504318356513977, -0.03453284502029419, 0.8633414764307907, 1791227475536260118, 
0.4013349413871765, -0.16317731142044067, 0.8060018006095767, 1791227475566857361, 
-0.23287850618362427, 0.293113648891449, 0.7513148366160869, 1791227475598617769, 
0.039431989192962646, 0.16102248430252075, 0.8626426115791486, 1791227475626739929, 
0.3725457191467285, 0.07226496934890747, 0.8184611992007788, 1791227475656471062, 
-0.003797292709350586, -0.04912519454956055, 0.77861538882154, 1791227475686535948, 
-0.2630019783973694, -0.0745057463645935, 0.7663810561079273, 1791227475716550650, 
-0.07070714235305786, 0.10844624042510986, 0.8182967624678417, 1791227475745668170, 
-0.38499367237091064, 0.22861891984939575, 0.7813403960992877, 1791227475776745707, 
-0.1611320972442627, 0.1156737208366394, 0.8005729201636974, 1791227475806804235, 
-0.2645071744918823, -0.4053651690483093, 0.7366899326302007, 1791227475838961042, 
-0.05682164430618286, 0.02207028865814209, 0.8205515180933008, 1791227475869223911, 
-0.2496204376220703, 0.704928994178772, 0.8786011690827165, 1791227475897041114, 
-0.37945711612701416, 0.17615318298339844, 0.7821506240326496, 1791227475927079280, 
-0.23098498582839966, -0.4360339045524597, 0.7799011269783365, 1791227475957105652, 
0.08198893070220947, 0.04703378677368164, 0.7925304814036053, 1791227475987221012, 
0.4135357141494751, 0.6531705856323242, 0.7899805792339315, 1791227476017274441, 
-0.4865068197250366, 0.02474313974380493, 0.7811821121599736, 1791227476047400388, 
0.39289677143096924, -0.3436671495437622, 0.737763361767781, 1791227476079365928, 
-0.23270374536514282, 0.344635546207428, 0.7370207450690315, 1791227476111030583, 
-0.23493456840515137, -0.10285890102386475, 0.7768200155479122, 1791227476167583878, 
-0.0674138069152832, 0.05018836259841919, 0.8227410863853332, 1791227476196638514, 
-0.5364986658096313, 0.1147536039352417, 0.789439339519125, 1791227476257801313, 
0.0475538969039917, -0.347606360912323, 0.8117777974205437, 1791227476287945518, 
0.08725982904434204, 0.6710700392723083, 0.7675184118008676, 1791227476318944672, 
-0.05701035261154175, -0.015562474727630615, 0.7192445652123984, 1791227476350625052, 
0.07507592439651489, -0.4157247543334961, 0.8535241103571383, 1791227476378429135, 
0.15143513679504395, 0.1937311291694641, 0.8474771794190783, 1791227476408346925, 
0.3129817843437195, 0.7188718318939209, 0.8313902109187192, 1791227476438431064, 
-0.1056361198425293, 0.1469225287437439, 0.8079012530602472, 1791227476468294204, 
-0.46323055028915405, -0.3926880359649658, 0.8017894072199351, 1791227476498327066, 
-0.23004978895187378, 0.1297140121459961, 0.8018785542212324, 1791227476528468690, 
-0.27930665016174316, 0.39683234691619873, 0.7944864225616879, 1791227476558966993, 
0.024190247058868408, 0.2503891587257385, 0.7726036384154249, 1791227476591006359, 
-0.34184980392456055, -0.2671155333518982, 0.8412162744792225, 1791227476620690361, 
0.16775965690612793, 0.080222487449646, 0.8610784326968739, 1791227476648847419, 
-0.3632012605667114, 0.09224873781204224, 0.802873642227002, 1791227476678710531, 
-0.06808960437774658, 0.016363084316253662, 0.7667121628525667, 1791227476699660914, 
0.011786341667175293, -0.09631079435348511, 0.8050915067517448, 1791227476728939698, 
-0.44798803329467773, 0.126545250415802, 0.7794951490647759, 1791227476758892406, 
-0.16348731517791748, 0.12234753370285034, 0.7906200518154759, 1791227476788991133, 
-0.32187747955322266, 0.11981356143951416, 0.7898785240908256, 1791227476819203797, 
0.47361528873443604, 0.3526274561882019, 0.7859715434899598, 1791227476849112572, 
0.20539653301239014, 0.09486067295074463, 0.7907234421876771, 1791227476879371661, 
-0.004629194736480713, -0.24569404125213623, 0.7606683404701312, 1791227476911073526, 
-0.37080538272857666, 0.20409905910491943, 0.7604225278733023, 1791227476942498292, 
0.02709484100341797, 0.34113651514053345, 0.8657095580868188, 1791227476969430772, 
0.20885449647903442, -0.04212057590484619, 0.7801043378126166, 1791227476999453157, 
-0.3715425729751587, -0.21907520294189453, 0.6984069266926131, 1791227477022554275, 
-0.2716674208641052, -0.02225363254547119, 0.8759981441788308, 1791227477049616776, 
-0.1286172866821289, 0.6445244550704956, 0.7731065097458345, 1791227477079613714, 
0.6071056127548218, -0.11287695169448853, 0.7765054329178988, 1791227477109619957, 
-0.07255595922470093, -0.0865790843963623, 0.790669830775567, 1791227477139770131, 
0.10564303398132324, 0.5615935921669006, 0.8008354003152452, 1791227477169863650, 
-0.49529027938842773, 0.13363045454025269, 0.8147397814440174, 1791227477199928272, 
0.24066442251205444, -0.031140506267547607, 0.7814851307648825, 1791227477231253559, 
-0.1277848482131958, -0.15162163972854614, 0.7893782380368707, 1791227477262461288, 
-0.22281533479690552, 0.079761803150177, 0.8885838428144255, 1791227477290123457, 
-0.1519889235496521, 0.24545955657958984, 0.8163328233840322, 1791227477320231272, 
0.33789241313934326, 0.3044348955154419, 0.8031213772212941, 1791227477350183198, 
-0.2532317042350769, 0.03247535228729248, 0.7819570780791283, 1791227477380245778, 
-0.13260644674301147, -0.27343446016311646, 0.7747393879331833, 1791227477411020997, 
-0.7347111701965332, -0.01274573802947998, 0.8086259177035291, 1791227477441044725, 
-1.0912370681762695, 0.8070530891418457, 0.7879790705928156, 1791227477471088961, 
0.23119628429412842, 0.06994062662124634, 0.7288254200638191, 1791227477502491907, 
-0.3234902024269104, -0.40918558835983276, 0.8047580036181081, 1791227477532472435, 
-0.24603378772735596, 0.023432791233062744, 0.8596775953566775, 1791227477561091286, 
-0.17908424139022827, 0.6604992747306824, 0.8041579058246636, 1791227477591132704, 
-0.19793707132339478, 0.02617555856704712, 0.7649446709209603, 1791227477621145677, 
0.32516610622406006, -0.13971763849258423, 0.7923492759956348, 1791227477651175597, 
0.22692877054214478, 0.36685532331466675, 0.8142277253912513, 1791227477681176646, 
-0.09565699100494385, 0.29023605585098267, 0.7808941206044092, 1791227477711280820, 
-0.586197555065155, -0.06615930795669556, 0.7354324382379108, 1791227477742993475, 
-0.21803224086761475, -0.27015960216522217, 0.7473513932790028, 1791227477774529570, 
0.07671087980270386, 0.6513116359710693, 0.8780971409400116, 1791227477801477670, 
-0.27891457080841064, 0.26154428720474243, 0.776328378905921, 1791227477831422146, 
0.12014830112457275, 0.2905814051628113, 0.6689020483365078, 1791227477854827557, 
0.30354082584381104, 0.008462011814117432, 0.8893695265822464, 1791227477881494613, 
-0.20796668529510498, 0.3379133343696594, 0.798404504428758, 1791227477911435513, 
-0.32374107837677, 0.043138980865478516, 0.8114978472933138, 1791227477941479352, 
0.07005804777145386, 0.2531350255012512, 0.8261947215184718, 1791227477971575408, 
0.07391244173049927, 0.5932271480560303, 0.7888952607501809, 1791227478001572878, 
-0.4529855251312256, -0.25748080015182495, 0.7732004547745699, 1791227478031690081, 
-0.55689537525177, -0.29552149772644043, 0.7929054099204493, 1791227478062937966, 
0.386355459690094, 0.4289376735687256, 0.8034869938284723, 1791227478094565518, 
0.27084869146347046, 0.7930304408073425, 0.8745472068923114, 1791227478121943731, 
-0.27440720796585083, -0.21030741930007935, 0.7888400367483777, 1791227478151954635, 
0.24657320976257324, -0.45076143741607666, 0.81194772058384, 1791227478182013692, 
-0.04402434825897217, 0.44164782762527466, 0.7882320878253375, 1791227478212054324, 
0.12593358755111694, 0.586454451084137, 0.7583151696917326, 1791227478242391935, 
-0.22297650575637817, 0.09671348333358765, 0.8011474879403246, 1791227478272209505, 
-0.13530606031417847, -0.22779321670532227, 0.7974947136102288, 1791227478302587648, 
-0.02285325527191162, 0.2918998599052429, 0.7326155971771653, 1791227478334781828, 
-0.500298798084259, 0.3115798830986023, 0.8529067992051615, 1791227478362458112, 
0.025585949420928955, -0.14336884021759033, 0.8045792180701143, 1791227478392471263, 
-0.3127513527870178, 0.3986785411834717, 0.7920066631161776, 1791227478422571774, 
0.42361247539520264, 0.22201967239379883, 0.7711188805237424, 1791227478452578371, 
-0.18009132146835327, -0.2364211082458496, 0.7776894700653222, 1791227478482767901, 
0.13959169387817383, 0.260633647441864, 0.7893580217320643, 1791227478512791824, 
0.018212199211120605, 0.10366833209991455, 0.777199147119564, 1791227478542864783, 
-0.23152238130569458, 0.19409030675888062, 0.7115844968910752, 1791227478575256613, 
-0.14662182331085205, 0.06741869449615479, 0.7969559215576385, 1791227478604712168, 
0.24765557050704956, 0.3951965570449829, 0.8522490297261773, 1791227478633012552, 
-0.29437679052352905, 0.2525624632835388, 0.8172026359715558, 1791227478663043959, 
0.3163161277770996, -0.20011597871780396, 0.8401311671740883, 1791227478693117350, 
-0.10931742191314697, -0.15080773830413818, 0.8234923529511261, 1791227478723216143, 
-0.17727917432785034, 0.4025716185569763, 0.7860809897039818, 1791227478753280285, 
-0.009690284729003906, 0.5850697755813599, 0.7846867161331317, 1791227478783405801, 
0.6011618375778198, -0.10972744226455688, 0.7929014126278127, 1791227478814569953, 
-0.23326653242111206, 0.12027484178543091, 0.7592503553356484, 1791227478846555781, 
-0.1534101963043213, 0.08160501718521118, 0.8765480739987761, 1791227478873732064, 
0.10838007926940918, -0.4722002148628235, 0.8100956066378507, 1791227478903805524, 
0.1583501100540161, 0.5018515586853027, 0.8661961355754932, 1791227478932638834, 
0.06207925081253052, 0.47355663776397705, 0.7728166227111057, 1791227478963723334, 
-0.3541717529296875, 0.20642352104187012, 0.7911391831335646, 1791227478993804053, 
0.058896780014038086, -0.14160382747650146, 0.7783473154035243, 1791227479023991900, 
-0.10141849517822266, 0.2590431571006775, 0.8050978123833569, 1791227479053639637, 
0.07805037498474121, 0.2936566472053528, 0.7381129185232697, 1791227479087050172, 
-0.5786443948745728, 0.09318238496780396, 0.9139914277705399, 1791227479114135679, 
-0.03115713596343994, 0.057951509952545166, 0.7827368510089951, 1791227479144125831, 
0.20540350675582886, 0.32086801528930664, 0.7437688220619348, 1791227479174170004, 
-0.13960504531860352, -0.008571505546569824, 0.775298941712414, 1791227479204293099, 
0.014435112476348877, 0.12314742803573608, 0.7893051971069859, 1791227479234460212, 
-0.10010731220245361, 0.266834557056427, 0.7676633429167313, 1791227479264555286, 
0.11434930562973022, 0.170058012008667, 0.7761862502347822, 1791227479294713605, 
0.32458484172821045, 0.21488440036773682, 0.764142123815303, 1791227479326785955, 
-0.28236591815948486, 0.014861583709716797, 0.8607732881652682, 1791227479354616914, 
0.22298401594161987, 0.40321600437164307, 0.8190153801058563, 1791227479383666114, 
-0.1016550064086914, 0.002126455307006836, 0.7820886725867225, 1791227479414683094, 
0.3686482906341553, -0.042559027671813965, 0.8213319073164779, 1791227479444778390, 
-0.14060568809509277, 0.23520177602767944, 0.785491566152768, 1791227479474868644, 
-0.25257641077041626, 0.4520265460014343, 0.7949209092158713, 1791227479503935686, 
0.6099991798400879, 0.19000202417373657, 0.7679109564178036, 1791227479535280772, 
-0.34657925367355347, -0.08938884735107422, 0.7786627537552459, 1791227479566728417, 
0.1124277114868164, 0.1228531002998352, 0.7742592365477835, 1791227479597993276, 
-0.09865373373031616, 0.08994972705841064, 0.8905429162853145, 1791227479625173050, 
0.24138516187667847, 0.31724482774734497, 0.8015455846479816, 1791227479655263978, 
-0.08348917961120605, 0.17288631200790405, 0.8038566499143117, 1791227479685335407, 
-0.035845935344696045, 0.020502865314483643, 0.8184075854136119, 1791227479715391020, 
0.09805470705032349, -0.06420624256134033, 0.8202168235319991, 1791227479745737949, 
0.3600813150405884, 0.5322690010070801, 0.8197981510304558, 1791227479775528776, 
-0.10611891746520996, 0.292367160320282, 0.7505982180577583, 1791227479807187997, 
-0.2752283215522766, -0.19662266969680786, 0.7600658742836539, 1791227479838724081, 
-0.08417314291000366, -0.1692017912864685, 0.9057064529652993, 1791227479865749177, 
0.3953707814216614, 0.6742430329322815, 0.7862622142486101, 1791227479895729632, 
-0.11963021755218506, 0.11959129571914673, 0.7516928290298054, 1791227479925844275, 
-0.21757590770721436, -0.17945408821105957, 0.7870348602555423, 1791227479955930479, 
0.258608341217041, 0.16674375534057617, 0.7852804306442377, 1791227479986010851, 
-0.33029603958129883, 0.43242019414901733, 0.7673013547785764, 1791227480016030836, 
0.17543178796768188, -0.022198021411895752, 0.7623568405485075, 1791227480047151068, 
0.12852662801742554, -0.11641156673431396, 0.7676557663535558, 1791227480078838339, 
0.26313650608062744, 0.972611665725708, 0.883879569584342, 1791227480106346872, 
-0.015157997608184814, -0.04885131120681763, 0.7924376265891263, 1791227480136345066, 
0.20906120538711548, -0.29655683040618896, 0.7999225441805632, 1791227480166430804, 
-0.18480974435806274, 0.3645969033241272, 0.8231898092875313, 1791227480196430501, 
-0.017181217670440674, 0.2817087173461914, 0.8088565613823825, 1791227480226547763, 
-0.0780482292175293, -0.25927209854125977, 0.8075389531125654, 1791227480256590005, 
0.021143734455108643, -0.07235664129257202, 0.7960711489997571, 1791227480286719615, 
0.08382946252822876, 0.6300884485244751, 0.7295076673530029, 1791227480318827621, 
-0.23738020658493042, 0.3067435622215271, 0.7917695047603777, 1791227480348811811, 
-0.26494479179382324, -0.36061495542526245, 0.8789763802420039, 1791227480376816395, 
0.32630491256713867, -0.08265316486358643, 0.8084966570513822, 1791227480406936033, 
0.26165735721588135, 0.6978039741516113, 0.7690144184942488, 1791227480437035962, 
-0.1375170350074768, 0.26750725507736206, 0.8079115090946543, 1791227480467107777, 
0.2520752549171448, 0.2896884083747864, 0.8176230844463365, 1791227480497344459, 
-0.13482439517974854, 0.655619740486145, 0.7900856651588112, 1791227480527478448, 
-0.1913507580757141, -0.2635195851325989, 0.7352787918581775, 1791227480559260258, 
-0.0064460039138793945, -0.22938477993011475, 0.8022622106556292, 1791227480589485819, 
0.3955736756324768, 0.5046021342277527, 0.8753279144410182, 1791227480617407154, 
-0.07623296976089478, 0.6232882738113403, 0.7741830966662401, 1791227480647442958, 
0.09232419729232788, -0.2840438485145569, 0.7481526799070758, 1791227480677496679, 
0.18800461292266846, -0.13377058506011963, 0.7823606147622568, 1791227480707702150, 
0.1405201554298401, 0.5140129327774048, 0.8008718220462242, 1791227480737827238, 
-0.2297419309616089, 0.014417767524719238, 0.7969288644854957, 1791227480767716767, 
0.08918946981430054, -0.17440277338027954, 0.7659797594749315, 1791227480798830207, 
0.5417652130126953, 0.40455347299575806, 0.7286249643447343, 1791227480831178293, 
-0.010017156600952148, 0.3956925868988037, 0.8722802517146891, 1791227480857969263, 
-0.13460522890090942, -0.3492612838745117, 0.8023139566279763, 1791227480887959550, 
-0.004221022129058838, 0.07389885187149048, 0.813657698238543, 1791227480918018826, 
-0.25257420539855957, 0.26329517364501953, 0.7887278645915091, 1791227480948061827, 
0.32779425382614136, 0.09770935773849487, 0.806529213271025, 1791227480978132452, 
-0.038898468017578125, -0.140672504901886, 0.8297854733992786, 1791227481008243895, 
0.25379788875579834, 0.5059477090835571, 0.7941534159348792, 1791227481039250833, 
0.15616220235824585, 0.1976989507675171, 0.7534547966514996, 1791227481071146608, 
-0.2559749484062195, -0.39747750759124756, 0.8836611208131887, 1791227481098503423, 
0.25072264671325684, -0.1367577314376831, 0.8141430245747096, 1791227481128525951, 
0.004696905612945557, 0.6273268461227417, 0.8002129753698949, 1791227481158549905, 
0.4821871519088745, 0.32622694969177246, 0.8031676648371371, 1791227481188701421, 
0.053034067153930664, -0.23334729671478271, 0.8514350272779492, 1791227481217656195, 
0.13673144578933716, -0.0026610493659973145, 0.7773675479166756, 1791227481248758365, 
-0.13892346620559692, 0.12851029634475708, 0.7707179473633361, 1791227481278958813, 
-0.05279088020324707, 0.295154333114624, 0.7117222169068017, 1791227481310814073, 
0.1784120798110962, 0.10014230012893677, 0.7837013267359664, 1791227481340462245, 
-0.12442505359649658, -0.015750885009765625, 0.8352222704490426, 1791227481369071221, 
-0.034724414348602295, -0.07508128881454468, 0.8114383312933138, 1791227481399076179, 
0.01812458038330078, 0.23643606901168823, 0.8062672780303883, 1791227481429140106, 
-0.1290636658668518, -0.010548710823059082, 0.7995891922797232, 1791227481459186411, 
0.22358888387680054, 0.22428029775619507, 0.8123665971936465, 1791227481489275168, 
0.20261812210083008, 0.24328839778900146, 0.8256239392366346, 1791227481518639443, 
0.316295862197876, -0.03820180892944336, 0.7319917308419798, 1791227481550789634, 
-0.044843077659606934, 0.08001160621643066, 0.7037429091824747, 1791227481583169678, 
0.10017746686935425, -0.17787659168243408, 0.8761282580787118, 1791227481609569756, 
0.07576239109039307, 0.38506758213043213, 0.8020848059852668, 1791227481639607258, 
-0.43963027000427246, 0.14739900827407837, 0.8046285866277273, 1791227481669746022, 
0.6147691607475281, 0.04604905843734741, 0.7753898963111564, 1791227481699740592, 
-0.35628384351730347, 0.0028971433639526367, 0.7783174531375949, 1791227481729820306, 
0.3088536262512207, 0.046720921993255615, 0.8010467259345123, 1791227481760026330, 
-0.3364083170890808, 0.047819674015045166, 0.7738047244229391, 1791227481791128843, 
-0.47115325927734375, -0.03766506910324097, 0.7234639832938708, 1791227481823303841, 
0.5660807490348816, 0.2869316339492798, 0.9194813345636541, 1791227481850168897, 
0.19475239515304565, 0.3470572233200073, 0.8556491714883291, 1791227481880114931, 
0.4073818325996399, 0.06955355405807495, 0.8185467531372079, 1791227481910193487, 
-0.18969374895095825, -0.2583240866661072, 0.7962622179226778, 1791227481940276561, 
0.4100545048713684, -0.2444096803665161, 0.7867488464456979, 1791227481970404414, 
-0.2867191433906555, 0.7664325833320618, 0.7833274900258163, 1791227482000869799, 
0.06598848104476929, 0.15205895900726318, 0.7661683660864488, 1791227482031588704, 
-0.14026886224746704, -0.3154689073562622, 0.7698694271389128, 1791227482062847347, 
0.41681575775146484, -0.09217548370361328, 0.8435852215070259, 1791227482090794045, 
-0.3048174977302551, 0.02125108242034912, 0.7878303777515465, 1791227482120649431, 
-0.5396851897239685, -0.4228919744491577, 0.7634979739169917, 1791227482173199527, 
0.4642372727394104, 0.4192715883255005, 0.8481737751907796, 1791227482201617462, 
0.1189577579498291, 0.2477813959121704, 0.7681491777222652, 1791227482231376928, 
-0.3054739236831665, -0.3455902338027954, 0.7238330776411047, 1791227482253264260, 
-0.07616251707077026, 0.2046830654144287, 0.8978346397254512, 1791227482280792004, 
-0.04567158222198486, 0.2923903465270996, 0.7808558481204109, 1791227482311455181, 
-0.04020470380783081, 0.21932506561279297, 0.7036043455268611, 1791227482333619207, 
-0.21328431367874146, -0.3416804075241089, 0.8415864285042473, 1791227482362042070, 
-0.08129364252090454, 0.19274204969406128, 0.8408658917326218, 1791227482391520262, 
0.16238272190093994, 0.28379225730895996, 0.7057674007156727, 1791227482414353633, 
-0.08208650350570679, 0.4978095293045044, 0.8242797303085064, 1791227482442308742, 
-0.09754157066345215, -0.6985557675361633, 0.7900331707217736, 1791227482471827066, 
-0.006791055202484131, -0.021624505519866943, 0.7068235251640893, 1791227482495080692, 
-0.44636648893356323, 0.8519439101219177, 0.8858293781937838, 1791227482531709498, 
-0.044927239418029785, -0.12221521139144897, 0.8166496374112004, 1791227482561677354, 
0.47130709886550903, -0.4352479577064514, 0.8037025774433136, 1791227482591870888, 
-0.04381030797958374, 0.42665165662765503, 0.7625154572302161, 1791227482622969301, 
-0.12339985370635986, 0.3836565613746643, 0.7475571000329947, 1791227482655033560, 
0.22928225994110107, -0.08963477611541748, 0.9206361961366115, 1791227482681929667, 
-0.04626667499542236, 0.09611481428146362, 0.8140198083143939, 1791227482711967224, 
0.08862185478210449, -0.19303452968597412, 0.7961111685089339, 1791227482742032368, 
-0.11452758312225342, -0.08869397640228271, 0.7950335656880292, 1791227482772120169, 
0.04351925849914551, 0.010989129543304443, 0.8025347347072733, 1791227482802150630, 
-0.5072612166404724, 0.7028003334999084, 0.8150588695342204, 1791227482832232528, 
-0.011925220489501953, -0.21187752485275269, 0.7745010823286211, 1791227482863216638, 
-0.594730019569397, -0.4293980598449707, 0.7515671421454944, 1791227482894795814, 
0.418570339679718, 0.2704533338546753, 0.8641795320510415, 1791227482922554738, 
-0.15709543228149414, 0.4295029044151306, 0.7676713378527683, 1791227482952512191, 
0.20898538827896118, -0.2651975750923157, 0.7578935480341296, 1791227482982557466, 
0.013852298259735107, -0.036257266998291016, 0.8028127796563959, 1791227483012624036, 
-0.07616227865219116, 0.24468278884887695, 0.7966908209778472, 1791227483042743652, 
-0.296207070350647, 0.12834960222244263, 0.7830328784883307, 1791227483072875425, 
-0.10488951206207275, -0.09925103187561035, 0.7924781471670225, 1791227483102877021, 
0.4386822581291199, -0.04832977056503296, 0.7524430467051239, 1791227483134770556, 
-0.018171250820159912, 0.46466994285583496, 0.7977215904528199, 1791227483165007317, 
-0.4103085994720459, -0.129230797290802, 0.8576267693040748, 1791227483193012555, 
-0.2165427803993225, -0.11110806465148926, 0.8226904431692065, 1791227483222105368, 
-0.37903815507888794, 0.3119451403617859, 0.7914829880794972, 1791227483252127916, 
-0.39563316106796265, -0.012224316596984863, 0.7799797553723438, 1791227483283201505, 
-0.004098415374755859, -0.3017417788505554, 0.8288114896850791, 1791227483313258158, 
0.26124703884124756, 0.4987257122993469, 0.8074593046496804, 1791227483343359903, 
0.013963878154754639, 0.1936449408531189, 0.7304584100111745, 1791227483375221570, 
-0.2939700484275818, -0.44962161779403687, 0.7594663119359168, 1791227483406800454, 
0.0689845085144043, -0.010237574577331543, 0.9288065918776972, 1791227483432638540, 
-0.22168844938278198, 0.3390886187553406, 0.7675746988343388, 1791227483463600108, 
0.21887069940567017, 0.2349410057067871, 0.8234823532885739, 1791227483492642329, 
-0.3633372187614441, -0.08045691251754761, 0.7897155916659061, 1791227483523721918, 
0.030171453952789307, -0.07713490724563599, 0.8168959100658488, 1791227483553798776, 
-0.4478713870048523, 0.06570667028427124, 0.8117414568546978, 1791227483583936733, 
-0.48157018423080444, 0.2297419309616089, 0.7716221007946478, 1791227483615120691, 
-0.3804333209991455, -0.09064143896102905, 0.7548131262019403, 1791227483646768678, 
-0.014937400817871094, -0.011190474033355713, 0.8707146120938042, 1791227483674159871, 
0.1853765845298767, -0.052539169788360596, 0.8025867110420922, 1791227483704227502, 
0.26256221532821655, -0.05015486478805542, 0.7817788822011534, 1791227483734528225, 
0.10721850395202637, 0.16352778673171997, 0.7696088086530124, 1791227483764415249, 
-0.24483507871627808, 0.017955482006072998, 0.7718868827366708, 1791227483794454403, 
-0.19930535554885864, 0.06731903553009033, 0.7748683023155711, 1791227483824417640, 
0.013463735580444336, 0.21982598304748535, 0.7593026593953233, 1791227483854827324, 
0.18714088201522827, 0.15046262741088867, 0.7133951055956844, 1791227483887262457, 
-0.42748934030532837, 0.024844586849212646, 0.8510796553365454, 1791227483914685961, 
-0.31082284450531006, -0.37333863973617554, 0.842528609856961, 1791227483943661921, 
-0.33035391569137573, 0.4852084517478943, 0.8204227923626272, 1791227483974708338, 
0.47128474712371826, 0.17749005556106567, 0.8192587680714453, 1791227484004894539, 
-0.07785165309906006, -0.20073747634887695, 0.8198307399637419, 1791227484034890969, 
0.5503559112548828, 0.07806801795959473, 0.8197563013140724, 1791227484064954919, 
-0.267431378364563, 0.4779028296470642, 0.7832193657242206, 1791227484095048758, 
-0.030800461769104004, -0.17948204278945923, 0.7215451158738427, 1791227484127082798, 
-0.3321661353111267, -0.2827024459838867, 0.7927892950876065, 1791227484157154689, 
-0.005872607231140137, 0.41449326276779175, 0.901279733274336, 1791227484184213468, 
0.09564930200576782, 0.45300811529159546, 0.7840347850191065, 1791227484215242802, 
-0.30604416131973267, -0.022195935249328613, 0.8045478986747412, 1791227484245331375, 
-0.1620236039161682, -0.4919480085372925, 0.8130864306209036, 1791227484275417541, 
-0.09212350845336914, 0.4663187265396118, 0.8107245856716119, 1791227484305468138, 
-0.5152822136878967, 0.20300501585006714, 0.7977438677688418, 1791227484335585713, 
0.07503056526184082, 0.14844906330108643, 0.7894142098603469, 1791227484367044388, 
0.31155890226364136, 0.08631712198257446, 0.7470760277341443, 1791227484399194817, 
0.14861351251602173, 0.03360557556152344, 0.8747593111459016, 1791227484425715414, 
-0.1724044680595398, -0.12242281436920166, 0.792319831428286, 1791227484455817792, 
-0.09229153394699097, 0.3124401569366455, 0.8334498092582237, 1791227484485844403, 
-0.22258836030960083, 0.1724032163619995, 0.7800596086308299, 1791227484515949877, 
-0.3273423910140991, -0.06562232971191406, 0.76566935540806, 1791227484545996964, 
0.3375503420829773, -0.19697612524032593, 0.8043470868302197, 1791227484576089962, 
-0.2668758034706116, 0.22545719146728516, 0.7627354679515116, 1791227484606908446, 
-0.032374024391174316, 0.45433133840560913, 0.7363410427972092, 1791227484638073642, 
-0.15636253356933594, -0.16055792570114136, 0.8458458726472162, 1791227484666283868, 
-0.21804845333099365, 0.04760950803756714, 0.8195980878909487, 1791227484696325909, 
-0.4739214777946472, 0.26146596670150757, 0.79757807383427, 1791227484726421636, 
-0.01437366008758545, 0.24095559120178223, 0.7745689852761845, 1791227484756480226, 
0.05314815044403076, -0.324931800365448, 0.7966445242743004, 1791227484786573846, 
-0.020635902881622314, 0.037868499755859375, 0.8297200897025422, 1791227484816602398, 
0.044192731380462646, 0.287794291973114, 0.7803415814650285, 1791227484847863375, 
0.061103224754333496, 0.3440747857093811, 0.752389891915956, 1791227484879113138, 
0.07724553346633911, 0.08068054914474487, 0.8396160109311819, 1791227484906828614, 
-0.279685914516449, 0.07970505952835083, 0.8004188504505476, 1791227484936886540, 
-0.4249309301376343, -0.01209104061126709, 0.8135230759947415, 1791227484966933332, 
-0.08239370584487915, 0.02464395761489868, 0.8202128099130931, 1791227484996993439, 
0.2372424602508545, 0.4219924211502075, 0.8023233985191622, 1791227485027069719, 
-0.4185597896575928, 0.1966826319694519, 0.7853428091693033, 1791227485057147346, 
-0.43448424339294434, -0.3570907711982727, 0.7886154021066988, 1791227485087275109, 
-0.322651743888855, -0.19270724058151245, 0.7523638104831905, 1791227485119588541, 
0.2625102400779724, 0.7244614958763123, 0.7792114661430796, 1791227485149911212, 
-0.3637574315071106, 0.31467753648757935, 0.8498356179655727, 1791227485177474921, 
-0.09320104122161865, -0.27493828535079956, 0.8143286870190476, 1791227485207489959, 
0.06465095281600952, -0.041767895221710205, 0.8232543115237267, 1791227485237606978, 
0.0706600546836853, 0.7610061168670654, 0.8244943992971171, 1791227485266646893, 
0.06471717357635498, -0.11756229400634766, 0.7339920839992584, 1791227485297816256, 
-0.452811598777771, -0.3062373995780945, 0.7834464254116669, 1791227485327750233, 
0.12471550703048706, 0.5433557033538818, 0.7505943109700097, 1791227485359531250, 
-1.9226877689361572, 0.7270151972770691, 0.7064497397524071, 1791227485391254061, 
-0.04860389232635498, -0.23407435417175293, 0.8413307589044117, 1791227485418329998, 
0.24432188272476196, -0.20309370756149292, 0.8227588578412456, 1791227485448103617, 
-0.004908144474029541, 0.6240897178649902, 0.7885330782948184, 1791227485478059274, 
-0.2995455265045166, 0.07246321439743042, 0.7519764136450433, 1791227485508280505, 
-0.2007044553756714, -0.27440059185028076, 0.744121855081419, 1791227485538164253, 
-0.10596567392349243, 0.4698364734649658, 0.7655410054836828, 1791227485568233789, 
-0.10456132888793945, 0.3195109963417053, 0.8522465998780647, 1791227485648443823, 
0.21521586179733276, 0.48386162519454956, 0.8143716646834166, 1791227485679715377, 
-0.0055272579193115234, 0.21661841869354248, 0.7961841604318377, 1791227485711550057, 
-0.20953524112701416, -0.2541632056236267, 0.9170575343822467, 1791227485738845925, 
-0.2266446352005005, 0.25689005851745605, 0.8030417327225661, 1791227485768724754, 
0.060003578662872314, 0.16147196292877197, 0.7824931129225589, 1791227485798729713, 
-0.25104641914367676, 0.25084584951400757, 0.7947630970111688, 1791227485828795500, 
-0.03644019365310669, -0.0008512139320373535, 0.8029122771064817, 1791227485858894643, 
-0.6540951728820801, 0.123340904712677, 0.7883454016658387, 1791227485888942955, 
0.14582329988479614, 0.038346827030181885, 0.7666582348164699, 1791227485919261174, 
-0.05100828409194946, 0.15684157609939575, 0.7503828088372189, 1791227485951019773, 
0.0031620264053344727, 0.375893235206604, 0.7776834345352522, 1791227485981773715, 
-0.550904393196106, 0.021002352237701416, 0.8643418327121087, 1791227486009285163, 
-0.14336496591567993, 0.10324215888977051, 0.8297051262513718, 1791227486038243836, 
0.03209817409515381, 0.11922276020050049, 0.7915331255395557, 1791227486069306541, 
-0.17940551042556763, 0.174532949924469, 0.7990950743110535, 1791227486099417298, 
-0.041749536991119385, 0.2818934917449951, 0.7744091652574795, 1791227486129555259, 
-0.06098085641860962, -0.12382674217224121, 0.7787262304604579, 1791227486159576722, 
-0.09501510858535767, 0.28154945373535156, 0.7205352407187388, 1791227486191707607, 
-0.1687924861907959, 0.29714375734329224, 0.7328378702596359, 1791227486223275691, 
-0.4351705312728882, -0.22029727697372437, 0.8803855688017208, 1791227486249798388, 
-0.13857728242874146, 0.30653107166290283, 0.7929634887913366, 1791227486279777433, 
0.14787405729293823, 0.31228727102279663, 0.7718926379813982, 1791227486309833578, 
-0.6792388558387756, 0.006078541278839111, 0.7829967849054323, 1791227486339936457, 
0.2672240734100342, 0.132962167263031, 0.8340412172366904, 1791227486370021739, 
-0.3729509115219116, 0.48747074604034424, 0.8199379420730969, 1791227486400239224, 
0.0835655927658081, 0.024414479732513428, 0.7524020722578789, 1791227486431042564, 
-0.8532809019088745, -0.23020148277282715, 0.7634098039743965, 1791227486462952357, 
0.7065020799636841, 0.41258031129837036, 0.9349756487349599, 1791227486490276037, 
-0.12382841110229492, 0.6713314652442932, 0.8124949249820599, 1791227486520324916, 
-0.09525561332702637, -0.04151815176010132, 0.7696698657894651, 1791227486550380626, 
-0.28830796480178833, -0.5731321573257446, 0.7978484636166494, 1791227486580466903, 
-0.05486041307449341, 0.4195048213005066, 0.8228411361868436, 1791227486610514999, 
-0.23842447996139526, 0.6036971211433411, 0.8102746406153394, 1791227486639639711, 
-0.26438117027282715, 0.046674489974975586, 0.7700896041418831, 1791227486670757598, 
0.009181737899780273, -0.20561110973358154, 0.7374161904552036, 1791227486703697196, 
-0.005925655364990234, 0.44509357213974, 0.8728972616961043, 1791227486730826824, 
-0.21072983741760254, 0.28563815355300903, 0.7804576272702967, 1791227486761526706, 
-0.39613211154937744, -0.08063411712646484, 0.8094071547596053, 1791227486791523119, 
0.20837914943695068, 0.22180438041687012, 0.7846200841916458, 1791227486821609184, 
0.2672412395477295, 0.5954217910766602, 0.7831358420151295, 1791227486851614848, 
-0.20783227682113647, -0.2493877410888672, 0.8276817391899389, 1791227486880670656, 
0.08989530801773071, -0.06684345006942749, 0.7700366139889561, 1791227486911754425, 
-0.40360742807388306, 0.6328065991401672, 0.7382090003881815, 1791227486942961579, 
0.1350894570350647, 0.2293047308921814, 0.7512507700181994, 1791227486973871445, 
0.09083336591720581, -0.007079482078552246, 0.8676687451775227, 1791227487002070474, 
-0.2310938835144043, 0.5916396379470825, 0.8095414461428899, 1791227487031929303, 
0.021740317344665527, 0.04757225513458252, 0.7830527297434232, 1791227487061807528, 
-0.1655064821243286, 0.07301199436187744, 0.7980745386201176, 1791227487091947367, 
-0.07426518201828003, 0.10400784015655518, 0.8164309493364312, 1791227487121929442, 
-0.2169092893600464, 0.24497079849243164, 0.7978899001472939, 1791227487151930445, 
-0.4714297652244568, -0.10484009981155396, 0.7594234807872805, 1791227487183009710, 
0.3706520199775696, 0.3482813835144043, 0.7477358310331178, 1791227487215437528, 
-0.20384758710861206, 0.5121315121650696, 0.9139542498890318, 1791227487241966695, 
-0.055692076683044434, -0.06902188062667847, 0.8066155594941288, 1791227487272040165, 
-0.18188458681106567, -0.3507389426231384, 0.8127255674532974, 1791227487302283006, 
0.33151519298553467, 0.3107157349586487, 0.8349642232096531, 1791227487322148381, 
-0.24547868967056274, 0.7334331274032593, 0.8160817596696889, 1791227487362156460, 
0.08080530166625977, 0.12448477745056152, 0.7918578774378302, 1791227487392270041, 
-0.19293248653411865, -0.29287922382354736, 0.7640845797406141, 1791227487423273904, 
0.021535158157348633, 0.16264265775680542, 0.7371943066379284, 1791227487455169672, 
-0.3122442960739136, 0.49552732706069946, 0.8725143794388895, 1791227487482455537, 
-0.08540451526641846, 0.15190690755844116, 0.8127985762875435, 1791227487512534937, 
-0.48799002170562744, -0.21322983503341675, 0.8164671833433816, 1791227487542565830, 
0.7759537696838379, 0.5156815052032471, 0.7631066909684707, 1791227487572758677, 
-0.3981971740722656, 0.1087045669555664, 0.7587091020031241, 1791227487602757500, 
-0.24868923425674438, -0.19067633152008057, 0.7745092633692922, 1791227487632852125, 
-0.342631995677948, 0.302104115486145, 0.772135549524637, 1791227487663595044, 
0.03496628999710083, 0.3767794370651245, 0.7627318273051573, 1791227487695048804, 
-0.006001412868499756, -0.011052846908569336, 0.8771388077886448, 1791227487723035405, 
-0.1549903154373169, 0.050531744956970215, 0.8181318803187885, 1791227487753043810, 
-0.19256198406219482, 0.11439090967178345, 0.8006631612020377, 1791227487783094658, 
-0.12299418449401855, 0.3166024088859558, 0.7102087167643801, 1791227487805270826, 
-0.03872746229171753, -0.1766674518585205, 0.824765812627054, 1791227487843237507, 
0.07035946846008301, 0.1947242021560669, 0.7933419500018761, 1791227487873308817, 
0.041016995906829834, 0.47862911224365234, 0.8127496954317488, 1791227487902557126, 
0.2590234875679016, 0.22053295373916626, 0.7279541239576963, 1791227487935321443, 
0.21276336908340454, -0.16357499361038208, 0.7701522224813486, 1791227487966235674, 
-0.41462457180023193, 0.09134572744369507, 0.9097342799262638, 1791227487992657644, 
-0.17714160680770874, 0.3152027130126953, 0.8103386255156332, 1791227488022655267, 
-0.06910961866378784, 0.2548021674156189, 0.7886856584873609, 1791227488053739731, 
-0.21802306175231934, 0.16170477867126465, 0.7996358160461139, 1791227488083871852, 
0.0681004524230957, -0.23825716972351074, 0.8070399930045251, 1791227488113821801, 
-0.38761478662490845, 0.19150668382644653, 0.8326150104786452, 1791227488144010795, 
0.07048553228378296, 0.1857091784477234, 0.806527983619756, 1791227488175471362, 
-0.2361122965812683, 0.5063766241073608, 0.7451509978301786, 1791227488207602334, 
0.014640986919403076, -0.05065196752548218, 0.8601589266196606, 1791227488234206694, 
-0.1499561071395874, -0.2520853281021118, 0.7907037500257139, 1791227488264169311, 
0.6447610259056091, 0.527086615562439, 0.8011659208298646, 1791227488294240820, 
-0.21777760982513428, 0.5983121991157532, 0.7713845878652656, 1791227488324284317, 
-0.00045877695083618164, -0.3679214119911194, 0.743660779052338, 1791227488354355262, 
-0.024310708045959473, -0.012931525707244873, 0.8045728762421256, 1791227488383399083, 
-0.043243348598480225, 0.5362629294395447, 0.7463305884065733, 1791227488415103296, 
-0.5678837895393372, -0.06227976083755493, 0.7300929602405326, 1791227488447093656, 
0.1817207932472229, -0.180983304977417, 0.8673010819455221, 1791227488474707803, 
0.12994897365570068, 0.30992305278778076, 0.7908606397147866, 1791227488504855969, 
-0.02968275547027588, 0.4921502470970154, 0.7808170304391963, 1791227488534763577, 
-0.2748450040817261, -0.1488105058670044, 0.7970201870672262, 1791227488564893941, 
0.2764466404914856, 0.027645409107208252, 0.8085318708225414, 1791227488594942980, 
-0.19959521293640137, 0.5506356954574585, 0.7869201668035954, 1791227488625292503, 
-0.07104390859603882, 0.02871537208557129, 0.796896739253391, 1791227488655322902, 
-0.6000399589538574, -0.30383849143981934, 0.7644732605872222, 1791227488687537206, 
0.1331731081008911, 0.18753987550735474, 0.8590427027184874, 1791227488715246756, 
-0.027979493141174316, 0.32417625188827515, 0.7560521752427293, 1791227488745324347, 
0.011179566383361816, 0.09360992908477783, 0.8106243584173805, 1791227488775357876, 
-0.10527092218399048, -0.2126023769378662, 0.77318030167677, 1791227488797275832, 
0.04009652137756348, 0.20773941278457642, 0.8748223428178045, 1791227488834424225, 
-0.20672249794006348, -0.122245192527771, 0.767644592395464, 1791227488865525542, 
0.24374771118164062, 0.13907456398010254, 0.830706379559712, 1791227488895764310, 
-0.15060901641845703, 0.47810083627700806, 0.7847287620588214, 1791227488927155659, 
-0.24915069341659546, 0.1097763180732727, 0.7526418814449165, 1791227488958512691, 
-0.11596405506134033, -0.47113877534866333, 0.8788380039364961, 1791227488985753101, 
0.23442715406417847, 0.3420800566673279, 0.8154604316752653, 1791227489015816001, 
-0.4335694909095764, 0.6131585836410522, 0.7888499392413126, 1791227489045856681, 
-0.5433153510093689, -0.34973400831222534, 0.7484243413194799, 1791227489076633238, 
0.23541903495788574, -0.10774427652359009, 0.8040488718903311, 1791227489105654416, 
0.07657694816589355, 0.410253643989563, 0.8037744546934339, 1791227489135661378, 
-0.7014062404632568, 0.08603858947753906, 0.7617673111180784, 1791227489167180195, 
0.21086132526397705, -0.025346755981445312, 0.7366044568950084, 1791227489199776915, 
0.2026231288909912, 0.07007765769958496, 0.871524657196944, 1791227489226760855, 
0.27632880210876465, 0.3378928303718567, 0.7731815990450907, 1791227489256742502, 
-0.5595030784606934, -0.06981056928634644, 0.790036129353773, 1791227489286785276, 
-0.04852026700973511, -0.24946385622024536, 0.8215003301896523, 1791227489316788523, 
-0.13739901781082153, 0.6439751386642456, 0.8035847086528828, 1791227489346938776, 
0.5999722480773926, 0.03666728734970093, 0.768164825104589, 1791227489376949279, 
-0.2805171608924866, -0.3439207673072815, 0.8079267960572192, 1791227489407151775, 
0.27037233114242554, 0.3957858085632324, 0.7693027313177416, 1791227489440060816, 
-0.5006464123725891, 0.34130221605300903, 0.9062728710894319, 1791227489466832623, 
0.10423678159713745, -0.21265965700149536, 0.7837010695329099, 1791227489496843881, 
-0.435247004032135, -0.3414182662963867, 0.8014356079104606, 1791227489526994585, 
0.20715230703353882, 0.4206605553627014, 0.8259063267221504, 1791227489556990883, 
-0.2697378993034363, 0.5347155928611755, 0.8153651727434409, 1791227489587092809, 
0.16717320680618286, 0.12468534708023071, 0.8093250408485148, 1791227489617132661, 
-0.11772376298904419, -0.6155133247375488, 0.8091747316204009, 1791227489646674567, 
-0.057141780853271484, 0.3529680371284485, 0.7282406287749212, 1791227489679459848, 
-0.19884496927261353, 0.38588637113571167, 0.7911210001652076, 1791227489709293960, 
0.32113736867904663, 0.33097773790359497, 0.8379582489009832, 1791227489737516774, 
-0.11276072263717651, -0.09627431631088257, 0.7920895603697036, 1791227489767451374, 
-0.11418735980987549, -0.10513567924499512, 0.8116411724228053, 1791227489797509598, 
0.08713197708129883, -0.12374222278594971, 0.8265111856665808, 1791227489827792384, 
0.06613427400588989, 0.5904202461242676, 0.8089013926565815, 1791227489857700072, 
-0.27466636896133423, -0.014786779880523682, 0.7592746661768012, 1791227489887798012, 
0.14953827857971191, -0.19068235158920288, 0.7487453423007342, 1791227489919402763, 
-0.10773509740829468, 0.1844424605369568, 0.7697462515674511, 1791227489950957483, 
-0.22290712594985962, 0.10552430152893066, 0.8707316114970364, 1791227489977976383, 
-0.046398043632507324, -0.07072699069976807, 0.7607161156079533, 1791227490007982302, 
-0.10794353485107422, 0.029200315475463867, 0.7848994655972875, 1791227490038069215, 
0.047319233417510986, 0.1290174126625061, 0.8073788131061448, 1791227490068129613, 
0.09363234043121338, 0.117839515209198, 0.8048085652043603, 1791227490098179932, 
0.31978273391723633, 0.3171314001083374, 0.8011033750837575, 1791227490128300049, 
0.1271284818649292, -0.2645968198776245, 0.766042856551343, 1791227490159738111, 
-0.016173362731933594, 0.038210511207580566, 0.7596701728280778, 1791227490191217947, 
-0.19856137037277222, 0.20522546768188477, 0.8787504633664025, 1791227490218577961, 
-0.04657769203186035, -0.2738703489303589, 0.831168781850626, 1791227490248719793, 
0.08735460042953491, 0.26106107234954834, 0.8340221836794973, 1791227490278730188, 
0.06549549102783203, 0.44916754961013794, 0.8113997813156546, 1791227490308711219, 
-0.11232346296310425, -0.11638307571411133, 0.8035863177843897, 1791227490338721690, 
-0.128790020942688, -0.3637998700141907, 0.7991887842713513, 1791227490368809073, 
-0.030767858028411865, 0.3636143207550049, 0.7673701955541218, 1791227490399266475, 
-0.3983256220817566, 0.46339893341064453, 0.7337187194460618, 1791227490431207770, 
0.029683709144592285, -0.0594559907913208, 0.8703794715489894, 1791227490459011086, 
-0.7225381135940552, 0.1221495270729065, 0.8175203475791073, 1791227490489030225, 
0.21656614542007446, -0.10771769285202026, 0.7751051194693873, 1791227490519117448, 
-0.1621112823486328, -0.017594456672668457, 0.7720346113438586, 1791227490549203551, 
0.1780892014503479, 0.0701647400856018, 0.8170551647786735, 1791227490579248444, 
-0.549197793006897, 0.17167478799819946, 0.8138456996417234, 1791227490609304136, 
0.185158371925354, 0.03360170125961304, 0.7743054116045557, 1791227490639405895, 
-0.3137328624725342, -0.13975059986114502, 0.7089729126152118, 1791227490672383711, 
0.292022168636322, -0.024476170539855957, 0.816327930754815, 1791227490702517449, 
-0.36340534687042236, 0.3643917441368103, 0.9010580645324493, 1791227490728641247, 
-0.02939528226852417, -0.007661640644073486, 0.7550290217336185, 1791227490758656045, 
-6.639957427978516e-05, -0.08128625154495239, 0.7493359619528798, 1791227490789727226, 
0.06121283769607544, 0.3448569178581238, 0.7817856349208174, 1791227490819764258, 
-0.39779412746429443, -0.3027797341346741, 0.7590575222425546, 1791227490849846041, 
-0.17425978183746338, 0.13157987594604492, 0.7844577388429481, 1791227490879899375, 
0.24722594022750854, -0.07052302360534668, 0.7668698382781007, 1791227490911449601, 
0.04187411069869995, 0.24139940738677979, 0.7670273515153623, 1791227490943224825, 
-0.24650579690933228, 0.08794748783111572, 0.9215083545295646, 1791227490970161023, 
0.21562093496322632, 0.032198429107666016, 0.8485911243187056, 1791227491000159362, 
-0.21574413776397705, 0.25127363204956055, 0.8042138152226472, 1791227491030258769, 
-0.4379924535751343, -0.12346822023391724, 0.7753000190369378, 1791227491060320148, 
0.10616487264633179, -0.18681228160858154, 0.8149728764441654, 1791227491090337733, 
-0.023266613483428955, 0.45565563440322876, 0.8255349313036827, 1791227491120509832, 
-0.1592974066734314, 0.287878155708313, 0.7764520289897818, 1791227491151544293, 
0.02866262197494507, -0.43257665634155273, 0.7418945589265611, 1791227491182865457, 
-0.46096235513687134, -0.3010774254798889, 0.8297858506763177, 1791227491211108629, 
-0.18664932250976562, 0.4588039517402649, 0.7984503316136025, 1791227491240880372, 
-0.28242605924606323, 0.5005935430526733, 0.8047500566404373, 1791227491270779529, 
0.14498203992843628, -0.2559437155723572, 0.8166878214003407, 1791227491300811694, 
-0.04683816432952881, -0.24032574892044067, 0.8207754750320814, 1791227491330950277, 
0.3085629343986511, 0.3501647710800171, 0.8067047771234082, 1791227491361002522, 
0.03968387842178345, -0.05282694101333618, 0.7786810939901447, 1791227491432058227, 
-0.22814905643463135, 0.11472904682159424, 0.795723986262436, 1791227491461789588, 
0.17744219303131104, 0.13997769355773926, 0.790012278485734, 1791227491491850108, 
-0.3918027877807617, -0.11470049619674683, 0.7964584822310378, 1791227491521874882, 
-0.24511289596557617, 0.14600342512130737, 0.7887027411208377, 1791227491551920786, 
-0.5165138244628906, -0.09596341848373413, 0.7382121847917599, 1791227491583449148, 
0.010728299617767334, -0.16936630010604858, 0.7596294105267388, 1791227491614412951, 
-0.08321148157119751, 0.22323966026306152, 0.8582218443680251, 1791227491642344998, 
-0.05370223522186279, 0.18760645389556885, 0.8020414945097714, 1791227491671994717, 
-0.36548691987991333, 0.08885842561721802, 0.8019941480342816, 1791227491702096051, 
0.322488009929657, -0.1286795735359192, 0.8241444214376497, 1791227491732169208, 
-0.1481190323829651, 0.010716259479522705, 0.818589794429061, 1791227491762179237, 
0.06145113706588745, 0.01688253879547119, 0.796354871780769, 1791227491792163994, 
0.036064088344573975, 0.18793171644210815, 0.7476257257234973, 1791227491823848314, 
0.08495759963989258, 0.30585169792175293, 0.7460238038298279, 1791227491855276724, 
-0.17758023738861084, 0.3392145037651062, 0.874411763761294, 1791227491882553106, 
-0.23362702131271362, 0.05139821767807007, 0.8258439468174411, 1791227491912240759, 
0.16502702236175537, -0.30513954162597656, 0.8280031926428987, 1791227491942445429, 
0.07765519618988037, 0.23090499639511108, 0.8378914574023871, 1791227491972552795, 
-0.032903969287872314, 0.14704328775405884, 0.8246453764492886, 1791227492002369467, 
0.0065770745277404785, 0.24571502208709717, 0.8049678745854734, 1791227492032456207, 
0.21753031015396118, -0.04337000846862793, 0.7701619518076342, 1791227492063263766, 
-0.24480324983596802, -0.04340583086013794, 0.7289255411864294, 1791227492095317621, 
-0.015428125858306885, 0.008131623268127441, 0.8372312377380667, 1791227492123086506, 
-0.31448882818222046, 0.36002182960510254, 0.7915026510147546, 1791227492152773525, 
0.18129408359527588, 0.24194985628128052, 0.7787529838277635, 1791227492182838880, 
-0.08976668119430542, 0.11116069555282593, 0.7975413147002709, 1791227492212846454, 
0.16750884056091309, -0.27376729249954224, 0.7992763349457783, 1791227492242896720, 
-0.5952749252319336, -0.015805482864379883, 0.7851683184022844, 1791227492273002249, 
-0.09421354532241821, 0.5568125247955322, 0.7573258554760498, 1791227492303577407, 
0.1275075078010559, -0.06622827053070068, 0.7350548195986412, 1791227492335720271, 
0.13823378086090088, 0.049951374530792236, 0.9146776354857261, 1791227492363206613, 
-0.2524091601371765, 0.217737078666687, 0.8213589236719234, 1791227492393252194, 
0.020316243171691895, 0.17170697450637817, 0.794133276611778, 1791227492423311977, 
-0.3230520486831665, -0.07271981239318848, 0.797865643047188, 1791227492453353843, 
0.23800110816955566, 0.058851778507232666, 0.8188165922736448, 1791227492483395917, 
-0.17232799530029297, 0.02727222442626953, 0.8140310694184336, 1791227492512650306, 
-0.13110917806625366, 0.22560900449752808, 0.7647636773733648, 1791227492543584975, 
0.13607853651046753, 0.2533110976219177, 0.7737610157396874, 1791227492574579404, 
-0.31580495834350586, 0.07090109586715698, 0.7750022240648885, 1791227492606439120, 
-0.6566026210784912, -0.1179242730140686, 0.8852709204288068, 1791227492633844077, 
-0.23278558254241943, -0.052157580852508545, 0.8213721434886455, 1791227492663818621, 
0.717684268951416, 0.38539350032806396, 0.801846021861754, 1791227492693847913, 
-0.11656457185745239, 0.3994011878967285, 0.7915495296772517, 1791227492723938645, 
-0.21766090393066406, -0.37243831157684326, 0.8225242869069667, 1791227492754025597, 
-0.23607081174850464, -0.38854867219924927, 0.8326446903752741, 1791227492784319297, 
0.1186714768409729, 0.5275810360908508, 0.7717066233194001, 1791227492815291646, 
-0.2672155499458313, 0.46078062057495117, 0.6928519368380616, 1791227492847739850, 
-0.32327479124069214, -0.38657402992248535, 0.8649064026640723, 1791227492874323771, 
0.28593432903289795, -0.27198803424835205, 0.7979755195049552, 1791227492904422288, 
0.028773903846740723, 0.8073598146438599, 0.7663756124615195, 1791227492934402015, 
-0.34573251008987427, -0.06705880165100098, 0.7610618429221123, 1791227492964466730, 
-0.5174600481987, -0.3727227449417114, 0.7985243383226969, 1791227492994535601, 
-0.0711590051651001, 0.6042723655700684, 0.8426950280776786, 1791227493022662500, 
0.005613088607788086, 0.2565334439277649, 0.6974032744966727, 1791227493055295596, 
-0.3437216877937317, -0.31809335947036743, 0.7390881812581015, 1791227493087318519, 
-0.20757222175598145, -0.07796323299407959, 0.8854115059493058, 1791227493114866363, 
-0.1811274290084839, 0.5852047801017761, 0.8008955998071523, 1791227493144890977, 
-0.06565135717391968, 0.24014651775360107, 0.7698861491513685, 1791227493174931866, 
-0.028383612632751465, -0.3665463924407959, 0.7990676359212561, 1791227493205034855, 
-0.0807868242263794, 0.4767965078353882, 0.81809334885941, 1791227493235072537, 
-0.014626622200012207, 0.3254631757736206, 0.7886355351303617, 1791227493265137662, 
0.27352744340896606, 0.020105719566345215, 0.7245821748957507, 1791227493295770160, 
0.6017841100692749, -0.3428182005882263, 0.7127108354140677, 1791227493327365060, 
1.4618499279022217, 1.0244289636611938, 0.9008386494345508, 1791227493355373149, 
0.2896689772605896, 0.05541086196899414, 0.8324720890984866, 1791227493385521764, 
-0.8112421035766602, -0.3778841495513916, 0.822634621050182, 1791227493415528353, 
0.5741702318191528, 0.4469229578971863, 0.8099554537229368, 1791227493445754213, 
-0.5420075058937073, -0.16744983196258545, 0.7432244218997652, 1791227493475959811, 
0.1506616473197937, -0.3043254613876343, 0.7797606536498384, 1791227493505783705, 
-0.1821388602256775, 0.6189629435539246, 0.8038459644155932, 1791227493535772030, 
-0.13748741149902344, 0.6638492345809937, 0.7431610202985863, 1791227493567299271, 
0.18418222665786743, -0.452583372592926, 0.769703074012474, 1791227493598293502, 
-0.16460102796554565, 0.026475608348846436, 0.8657609675135197, 1791227493625930518, 
0.05078017711639404, 0.4736347794532776, 0.7869481472258566, 1791227493656018475, 
-0.6718169450759888, 0.21438586711883545, 0.7697121789971625, 1791227493686108125, 
0.03885442018508911, -0.2669888734817505, 0.7753813867989418, 1791227493716124798, 
0.28051042556762695, 0.4045027494430542, 0.7861355007442956, 1791227493746290456, 
0.09219342470169067, 0.317841112613678, 0.7976573821134373, 1791227493776470413, 
-0.4228772521018982, -0.08926928043365479, 0.7596071646320444, 1791227493808007025, 
0.05290430784225464, 0.002122819423675537, 0.7775932803385615, 1791227493838686572, 
0.3478841185569763, 0.3014795780181885, 0.8699735025498885, 1791227493866474804, 
0.0596805214881897, 0.4304065704345703, 0.8052938443389311, 1791227493896516419, 
0.003974437713623047, -0.32130247354507446, 0.6618559895476496, 1791227493920173667, 
-0.059485793113708496, 0.45100051164627075, 0.847854325583191, 1791227493946699723, 
-0.08025437593460083, 0.20199322700500488, 0.7927368092594698, 1791227493975695196, 
-0.26888346672058105, -0.08111572265625, 0.8003044398559268, 1791227494006820259, 
-0.1297069787979126, 0.2781011462211609, 0.857869937425317, 1791227494036824379, 
-0.1840943694114685, 0.6654518842697144, 0.8357273635132959, 1791227494066903299, 
-0.2535175681114197, -0.32074809074401855, 0.8109045404853809, 1791227494096937906, 
-0.45138823986053467, -0.5059751272201538, 0.7793108951318766, 1791227494128338416, 
0.12697046995162964, 0.4072173833847046, 0.7950529636644768, 1791227494159546327, 
-0.31310099363327026, 0.6421541571617126, 0.8726151643620493, 1791227494187344875, 
0.04719388484954834, 0.1962009072303772, 0.7901442833748171, 1791227494217381137, 
-0.20224285125732422, -0.46327799558639526, 0.8120580939784088, 1791227494247314224, 
-0.029147088527679443, 0.29617810249328613, 0.8202823507690529, 1791227494277328709, 
-0.15187519788742065, 0.47014904022216797, 0.7924386761388085, 1791227494307442784, 
-0.18389827013015747, 0.2539327144622803, 0.7887047948508579, 1791227494337477732, 
-0.06487917900085449, -0.22075819969177246, 0.7758401085418974, 1791227494367903752, 
-0.26291781663894653, 0.22114747762680054, 0.7558400941373764, 1791227494399523564, 
0.01674628257751465, 0.41458916664123535, 0.8033063883343551, 1791227494429983601, 
0.35254836082458496, 0.2559226155281067, 0.8664746658426945, 1791227494467758358, 
0.15092051029205322, 0.16282206773757935, 0.7719054681403956, 1791227494497863080, 
-0.13236761093139648, 0.09552896022796631, 0.7868294570719826, 1791227494527942629, 
0.04420870542526245, 0.3738553524017334, 0.7733096847450578, 1791227494559570410, 
0.019725561141967773, -0.05417585372924805, 0.7652995136742403, 1791227494590778941, 
0.05580723285675049, 0.0817793607711792, 0.8388595014878059, 1791227494618178586, 
-0.33047449588775635, -0.03728175163269043, 0.7550708058478138, 1791227494648191168, 
0.025142431259155273, 0.1729515790939331, 0.6647992450441689, 1791227494671522387, 
-0.29623913764953613, 0.08167678117752075, 0.8809234685638039, 1791227494698361547, 
-0.1819813847541809, 0.4210364818572998, 0.7737013022904776, 1791227494728362359, 
-0.32070326805114746, -0.15886670351028442, 0.7961980608244474, 1791227494758408653, 
0.7524712085723877, 0.1342989206314087, 0.8301480679834337, 1791227494788444682, 
-0.11626118421554565, 0.4098244309425354, 0.7907172820760271, 1791227494818551227, 
-0.03545844554901123, 0.31671983003616333, 0.8036872626304409, 1791227494847646108, 
0.03328984975814819, 0.049265265464782715, 0.7643963469833017, 1791227494879899230, 
0.023463547229766846, -0.10746544599533081, 0.786163362762464, 1791227494911617063, 
-0.3640318512916565, 0.33732956647872925, 0.8819691904184017, 1791227494938882733, 
-0.11883193254470825, 0.005082666873931885, 0.787453362372439, 1791227494968865548, 
0.08287906646728516, 0.09573256969451904, 0.7908922173797166, 1791227494999006858, 
-0.22798830270767212, 0.5327959060668945, 0.7877224648682755, 1791227495029096473, 
-0.16453051567077637, 0.27385711669921875, 0.7775674794598372, 1791227495059218051, 
-0.12463676929473877, -0.1890508532524109, 0.8102463650907934, 1791227495089232922, 
0.12623995542526245, 0.2000330090522766, 0.7839857328752092, 1791227495119537123, 
-0.2246795892715454, 0.5259865522384644, 0.6974467597074597, 1791227495152440170, 
-0.626512885093689, -0.2887617349624634, 0.8649774999020646, 1791227495179348224, 
-0.25827592611312866, -0.3241491913795471, 0.8030580771493886, 1791227495209389033, 
0.4038969874382019, 0.6308099627494812, 0.7989182898299755, 1791227495239466944, 
-0.09018367528915405, 0.1469717025756836, 0.7880062832651068, 1791227495269549825, 
-0.10827040672302246, -0.24545979499816895, 0.7985758305436313, 1791227495299610954, 
-0.06362283229827881, 0.455690860748291, 0.7803064789383931, 1791227495329698107, 
0.2656748294830322, 0.3835033178329468, 0.7433942433568052, 1791227495359780460, 
-0.06362444162368774, -0.07852578163146973, 0.7337264700519381, 1791227495390660954, 
-0.48797303438186646, 0.021429598331451416, 0.7756619195343423, 1791227495421715196, 
-0.25845927000045776, 0.20524001121520996, 0.8753690344543147, 1791227495450027342, 
-0.4405507445335388, 0.4217284917831421, 0.8232579385356533, 1791227495479988331, 
0.3197644352912903, 0.08894747495651245, 0.8038760310918893, 1791227495510063025, 
-0.21856707334518433, 0.19038939476013184, 0.8114836150948516, 1791227495540186365, 
0.22460192441940308, 0.31564080715179443, 0.815366082866691, 1791227495570231880, 
-0.19423967599868774, 0.13399958610534668, 0.8028458076292192, 1791227495600304918, 
0.20749813318252563, -0.10403227806091309, 0.7602091423597107, 1791227495631817540, 
-0.4554797410964966, 0.13498175144195557, 0.7419582541623772, 1791227495664065796, 
0.21780651807785034, 0.28548508882522583, 0.9291578853180871, 1791227495690505386, 
-0.2229195237159729, 0.18793737888336182, 0.8335784490379567, 1791227495720547961, 
0.32897573709487915, 0.36499977111816406, 0.8164323542922762, 1791227495750585695, 
-0.34563595056533813, -0.1210106611251831, 0.7855764503158185, 1791227495780749572, 
0.0615079402923584, -0.16380542516708374, 0.801525489199605, 1791227495810998934, 
-0.28632980585098267, 0.3086225390434265, 0.817262799152662, 1791227495840842876, 
0.1979057788848877, 0.7542057633399963, 0.772699477311392, 1791227495871687722, 
-0.47021257877349854, -0.2636382579803467, 0.739316972229715, 1791227495903464918, 
-0.25615882873535156, -0.34129416942596436, 0.8760205653389804, 1791227495931043813, 
0.3037044405937195, 0.287289559841156, 0.8129538715361367, 1791227495961075011, 
-0.2561865448951721, 0.6026260852813721, 0.7999092526550362, 1791227495991119812, 
0.14392757415771484, -0.1538943648338318, 0.7820720911369333, 1791227496021273150, 
0.12405413389205933, 0.01632225513458252, 0.7954684459278242, 1791227496051251043, 
-0.18918561935424805, 0.3659641742706299, 0.7712696505849105, 1791227496082043211, 
-0.08417457342147827, 0.14949482679367065, 0.7873678149041499, 1791227496112337049, 
-0.1815476417541504, -0.09164869785308838, 0.7497709068669629, 1791227496144103352, 
0.2587563395500183, 0.11187392473220825, 0.8247623761409242, 1791227496172634955, 
-0.1286778450012207, 0.49033844470977783, 0.8099243205537789, 1791227496202201251, 
0.1096847653388977, 0.052848756313323975, 0.8059802144721508, 1791227496232112727, 
0.19884181022644043, 0.44457507133483887, 0.7137711635481366, 1791227496254295775, 
0.3818128705024719, 0.14379048347473145, 0.8310865787476901, 1791227496282205331, 
0.016825437545776367, 0.14788466691970825, 0.8031368347839315, 1791227496312126547, 
0.11357641220092773, 0.1535935401916504, 0.8218309642933359, 1791227496342323912, 
-0.01724982261657715, 0.2410140037536621, 0.8210102091853554, 1791227496372298525, 
0.21549838781356812, 0.17489558458328247, 0.7938689526866093, 1791227496402276321, 
-0.5344976186752319, -0.281833291053772, 0.801958166835185, 1791227496432307283, 
-0.15936338901519775, 0.018919527530670166, 0.7801753306406449, 1791227496463582454, 
0.3256482481956482, 0.6319777369499207, 0.7321268891664919, 1791227496496227649, 
-0.10722839832305908, 0.3282804489135742, 0.9106059068763812, 1791227496522552443, 
0.008412301540374756, -0.48949968814849854, 0.8435797017616431, 1791227496552494513, 
-0.043181419372558594, -0.1327962875366211, 0.8318034153190246, 1791227496582541290, 
0.048398375511169434, 0.43555378913879395, 0.8019367189091413, 1791227496612550704, 
0.12986308336257935, 0.025543510913848877, 0.7683807851964288, 1791227496642951079, 
-0.15515369176864624, 0.08448433876037598, 0.7763827390035182, 1791227496672854662, 
0.24028468132019043, 0.1891273856163025, 0.7664528805621873, 1791227496703480200, 
0.06790035963058472, -0.15905499458312988, 0.7349952043295611, 1791227496735505237, 
0.09289997816085815, 0.47349148988723755, 0.8978517400526306, 1791227496761892423, 
-0.27654343843460083, -0.018938183784484863, 0.7512688827623415, 1791227496792882251, 
-0.2107883095741272, 0.07876801490783691, 0.7784098432535291, 1791227496822974475, 
0.12399107217788696, 0.24439287185668945, 0.7910122044524183, 1791227496852994664, 
0.06937700510025024, 0.008011817932128906, 0.7962578887570939, 1791227496883109713, 
-0.38698798418045044, 0.369276225566864, 0.7778536450277447, 1791227496913162222, 
-0.045842885971069336, -0.2429249882698059, 0.7411787417046948, 1791227496944564450, 
0.21701925992965698, -0.10458177328109741, 0.779515590121653, 1791227496975604083, 
0.24406874179840088, 0.41162192821502686, 0.8784782356309672, 1791227497003456801, 
0.2505733370780945, 0.1551206111907959, 0.7692285403866355, 1791227497033510187, 
-0.2518782615661621, 0.06999582052230835, 0.7839981481357868, 1791227497063460525, 
-0.2803621292114258, -0.35875463485717773, 0.7199250038269905, 1791227497086012051, 
0.3381194472312927, 0.17394888401031494, 0.920865150058626, 1791227497112868355, 
-0.09765303134918213, 0.6210566759109497, 0.7817117711316288, 1791227497142662456, 
0.2895568609237671, -0.0482630729675293, 0.7455419248867466, 1791227497173739571, 
0.049244582653045654, -0.31252652406692505, 0.8396243595975228, 1791227497203844494, 
0.18664401769638062, 0.258392333984375, 0.8620558506254153, 1791227497232844739, 
-0.2040189504623413, 0.16060084104537964, 0.7628277243704846, 1791227497264056678, 
0.28138303756713867, 0.01434028148651123, 0.7645207039206151, 1791227497295542493, 
-0.4194447994232178, 0.04020482301712036, 0.7879005895106085, 1791227497327062579, 
0.06060922145843506, 0.22662705183029175, 0.9002423597679284, 1791227497354343100, 
-0.181918203830719, -0.11550813913345337, 0.8074201016679369, 1791227497384230945, 
0.5656136274337769, -0.010200798511505127, 0.7991167966480137, 1791227497414263461, 
-0.0771130919456482, 0.42678821086883545, 0.7579480172502401, 1791227497444346941, 
0.012349426746368408, 0.037217676639556885, 0.7537807009538995, 1791227497474390894, 
-0.056572675704956055, -0.4088030457496643, 0.7778817135915207, 1791227497504459504, 
0.04598420858383179, 0.5721799731254578, 0.7650499800849477, 1791227497535566100, 
0.06521135568618774, 0.21338438987731934, 0.7275157862518181, 1791227497567546949, 
-0.17461681365966797, -0.27816832065582275, 0.8789990430045005, 1791227497594731011, 
0.5947645306587219, 0.08614957332611084, 0.8358095749134735, 1791227497624730825, 
-0.06612181663513184, 0.31380724906921387, 0.7919064441283138, 1791227497654793706, 
-0.3654094934463501, 0.026671409606933594, 0.7634374236643603, 1791227497684852407, 
-0.322215735912323, -0.2369145154953003, 0.7986301129825593, 1791227497714910203, 
0.46117836236953735, 0.05505084991455078, 0.8070096502594333, 1791227497744955314, 
0.21494656801223755, 0.6803179979324341, 0.7515335589121211, 1791227497776262081, 
-0.05993765592575073, -0.33137035369873047, 0.7551416458672329, 1791227497807562897, 
-0.17273658514022827, -0.08794188499450684, 0.8872992954965877, 1791227497835263343, 
0.08344590663909912, 0.3935028910636902, 0.8152721594977779, 1791227497865286395, 
0.0043381452560424805, -0.06426137685775757, 0.7896482291233939, 1791227497895352473, 
0.08410811424255371, -0.4280545711517334, 0.7756953465614266, 1791227497925491184, 
-0.05448472499847412, 0.23114514350891113, 0.8030627816663559, 1791227497955425578, 
0.084195077419281, 0.6190435886383057, 0.8215703895263881, 1791227497985471576, 
-0.04561722278594971, -0.07928335666656494, 0.8386271351825363, 1791227498015547491, 
-0.45766139030456543, -0.3838711977005005, 0.7722923752006247, 1791227498047602768, 
-0.00196683406829834, 0.13085752725601196, 0.8533100026040653, 1791227498075776287, 
0.14170080423355103, 0.48584043979644775, 0.7950060974822681, 1791227498105788427, 
0.28011417388916016, -0.013936340808868408, 0.7828679130684159, 1791227498135948843, 
-0.4623730182647705, -0.030416369438171387, 0.8033143351165, 1791227498165025787, 
0.02267974615097046, -0.04946225881576538, 0.7653923672701428, 1791227498195946786, 
-0.10635340213775635, 0.04874223470687866, 0.820476132500651, 1791227498226164019, 
0.1863769292831421, 0.20271873474121094, 0.8344470924224917, 1791227498256186633, 
-0.17103129625320435, 0.5964421629905701, 0.771068513615031, 1791227498288227194, 
0.030126452445983887, -0.23709362745285034, 0.7658154559310979, 1791227498318838546, 
-0.26879072189331055, -0.1884257197380066, 0.8595520495866409, 1791227498346378307, 
0.2858685255050659, 0.21524107456207275, 0.7930310407108603, 1791227498376373518, 
-0.16453534364700317, 0.0810236930847168, 0.7507138832599248, 1791227498406442146, 
0.20769697427749634, 0.06033122539520264, 0.7371579105068632, 1791227498437137534, 
0.35160374641418457, -0.0023360848426818848, 0.7968145390670079, 1791227498467163041, 
0.16522103548049927, 0.44907450675964355, 0.8124507442952731, 1791227498497221122, 
-0.14301669597625732, -0.11565399169921875, 0.814839933770551, 1791227498526645299, 
-0.030199646949768066, -0.10185539722442627, 0.714359935183006, 1791227498559708166, 
-0.3015056848526001, 0.15862411260604858, 0.8697925263122912, 1791227498587253648, 
-0.2061457633972168, 0.16939061880111694, 0.8087115625665638, 1791227498617288762, 
-0.10172122716903687, -0.2867000699043274, 0.8222772461214026, 1791227498647400868, 
0.09772723913192749, 0.18608754873275757, 0.842479873317963, 1791227498677283610, 
0.3236115574836731, 0.41988950967788696, 0.8054170949059627, 1791227498707314571, 
-0.24211716651916504, -0.2327115535736084, 0.7903688530246497, 1791227498737455728, 
-0.043958425521850586, -0.4391828775405884, 0.8259745808023765, 1791227498766635862, 
0.2407594919204712, 0.21668338775634766, 0.7104508058614144, 1791227498800121947, 
0.3936300277709961, 0.7316288948059082, 0.871991153372079, 1791227498826653001, 
-0.20167559385299683, -0.12626045942306519, 0.7706231940365519, 1791227498857547976, 
0.1285189986228943, -0.25343912839889526, 0.8303871039384296, 1791227498887484697, 
-0.21279025077819824, 0.1538327932357788, 0.8102529555528701, 1791227498917556326, 
-0.21672922372817993, -0.002552628517150879, 0.7891170993413521, 1791227498947585044, 
0.1286875605583191, 0.19016849994659424, 0.7875875223593886, 1791227498977722051, 
0.024611949920654297, 0.07719683647155762, 0.8029571719700954, 1791227499007804122, 
-0.11514055728912354, -0.21902430057525635, 0.7495049464107244, 1791227499039808004, 
-0.06260359287261963, 0.26342642307281494, 0.8594101684041857, 1791227499067923175, 
-0.08961772918701172, -0.2021196484565735, 0.8332881153364016, 1791227499096999438, 
-0.3424122929573059, 0.06930756568908691, 0.7495833259833977, 1791227499127985279, 
0.226915180683136, 0.2774997353553772, 0.7580168172631752, 1791227499158104379, 
0.26915979385375977, -0.07148611545562744, 0.7733055143105863, 1791227499188141800, 
-0.024581313133239746, 0.19035500288009644, 0.7815800222519467, 1791227499218245975, 
-0.3367660641670227, 0.26283925771713257, 0.7802002281100185, 1791227499248363131, 
-0.07859891653060913, -0.3079493045806885, 0.7754346951144101, 1791227499279840685, 
-0.005841553211212158, 0.04958176612854004, 0.7598904649440389, 1791227499312412350, 
0.02553105354309082, 0.31630271673202515, 0.9119035129903382, 1791227499338535532, 
-0.2888856530189514, -0.022423207759857178, 0.8064988121088119, 1791227499368529251, 
0.33660435676574707, -0.1846146583557129, 0.8288557571964311, 1791227499398624720, 
-0.28294217586517334, 0.22232258319854736, 0.8157377281951596, 1791227499428719077, 
-0.12547391653060913, -0.0018597245216369629, 0.7962894455774466, 1791227499458766828, 
-0.541074275970459, -0.07469451427459717, 0.7945739201249553, 1791227499488845758, 
0.2364790439605713, 0.15463471412658691, 0.7989467119544063, 1791227499520030681, 
0.06598234176635742, 0.34715354442596436, 0.7545329460368654, 1791227499551691153, 
-0.20815950632095337, -0.05099278688430786, 0.8462302950209075, 1791227499579075703, 
-0.1097869873046875, -0.580481231212616, 0.7912419463500067, 1791227499609032994, 
-0.009177684783935547, 0.526750922203064, 0.8171221063507843, 1791227499639166057, 
0.042169928550720215, 0.519777238368988, 0.8178567647419186, 1791227499669225954, 
-0.29065054655075073, -0.20220506191253662, 0.8119529423105987, 1791227499699317019, 
0.3497381806373596, -0.3945329785346985, 0.7948798450514372, 1791227499729385734, 
-0.008535027503967285, 0.5051669478416443, 0.759655607839538, 1791227499760169150, 
0.015795648097991943, 0.26300764083862305, 0.7338199933274868, 1791227499792133331, 
-0.6393875479698181, -0.36811363697052, 0.8726232873286396, 1791227499819620294, 
-0.20825958251953125, 0.11238420009613037, 0.7949557532857185, 1791227499849681454, 
-0.39964622259140015, 0.30265140533447266, 0.7925763912632643, 1791227499879735003, 
0.06668686866760254, -0.1783648133277893, 0.7251666964458496, 1791227499901810920, 
-0.18690437078475952, -0.12006992101669312, 0.8319609682375336, 1791227499939949097, 
0.019459187984466553, 0.3166292905807495, 0.7711384044061709, 1791227499969913362, 
-0.003055393695831299, -0.08555799722671509, 0.7778814561447324, 1791227499999985363, 
-0.3004593849182129, 0.10336959362030029, 0.7561005102314007, 1791227500032021350, 
-0.45355522632598877, 0.17443573474884033, 0.7881843453222444, 1791227500062856505, 
0.2712250351905823, 0.17878484725952148, 0.8594985397197998, 1791227500090453886, 
-0.16911214590072632, -0.05190157890319824, 0.7836673050465912, 1791227500120712142, 
0.27226585149765015, 0.07809829711914062, 0.8309402182089779, 1791227500150284326, 
-0.35099339485168457, -0.147658109664917, 0.7997430472320617, 1791227500180597017, 
-0.08098232746124268, 0.3533589839935303, 0.7872807852872777, 1791227500210539668, 
0.5468237400054932, 0.2628862261772156, 0.7650893747130854, 1791227500240501217, 
-0.24627065658569336, 0.03159821033477783, 0.7427793501901518, 1791227500272350052, 
-0.12105286121368408, -0.0983496904373169, 0.7857555105798218, 1791227500304031429, 
-0.3791341185569763, 0.01917344331741333, 0.9587330502549603, 1791227500331027559, 
0.3994513154029846, 0.25991880893707275, 0.8489386270221042, 1791227500360814266, 
-0.469113290309906, 0.37532782554626465, 0.80267691437596, 1791227500390869881, 
0.10752910375595093, -0.20947682857513428, 0.8095157546522024, 1791227500420948769, 
-0.2363736629486084, -0.17418932914733887, 0.8018205224332348, 1791227500451163940, 
0.3704105615615845, 0.4133095145225525, 0.7760683374263282, 1791227500480993109, 
-0.24946683645248413, 0.2656983733177185, 0.736597232898517, 1791227500512194606, 
-0.302673876285553, -0.2456120252609253, 0.7376549290555672, 1791227500543925941, 
-0.26251065731048584, -0.22357559204101562, 0.869819302809219, 1791227500571313106, 
0.09534120559692383, 0.5962633490562439, 0.7843715507873588, 1791227500601292700, 
-0.280711829662323, 0.057666778564453125, 0.737396395644398, 1791227500631428761, 
-1.4046833515167236, -0.7324075102806091, 0.6725459631043503, 1791227500661730586, 
-0.6504358649253845, 0.34783226251602173, 0.5627788056402832, 1791227500691436920, 
-0.672267496585846, -0.01892465353012085, 0.512710309266021, 1791227500721526737, 
1.5859450101852417, 0.33966267108917236, 0.5500443424604915, 1791227500752272232, 
0.169918954372406, 0.02340400218963623, 0.715235946503035, 1791227500784210173, 
-0.021367013454437256, 0.04698026180267334, 0.8645893172165056, 1791227500813814737, 
0.1755436658859253, 0.23947155475616455, 0.867142697399262, 1791227500842401519, 
-0.48624205589294434, 0.10084199905395508, 0.8155937022289776, 1791227500872360703, 
-0.00641101598739624, 0.05940103530883789, 0.8163086447548787, 1791227500902405814, 
-0.6690800189971924, 0.23109161853790283, 0.8305262135235341, 1791227500932370980, 
-0.7378679513931274, 0.06699240207672119, 0.8233704949544972, 1791227500962385906, 
-0.25370025634765625, 0.16160517930984497, 0.804332807540658, 1791227500992511104, 
0.227733314037323, -0.2917325496673584, 0.7413597533136607, 1791227501023814045, 
0.5202186703681946, 0.5149200558662415, 0.6949757687637507, 1791227501055561714, 
-0.34228843450546265, 0.5451760292053223, 0.894661729695181, 1791227501081720377, 
0.2190287709236145, -0.18831151723861694, 0.8104983640630588, 1791227501112577421, 
-0.1678922176361084, 0.020265400409698486, 0.8249930620526638, 1791227501142580396, 
-0.146922767162323, 0.11197429895401001, 0.8044060968418626, 1791227501172623229, 
-0.1485658884048462, 0.2325901985168457, 0.8287503978336271, 1791227501202688611, 
1.1511082649230957, 0.3408970236778259, 0.8231072067932659, 1791227501231729158, 
0.5464434027671814, 0.2244793176651001, 0.7121614190176049, 1791227501263788362, 
1.4090975522994995, 0.13055866956710815, 0.6883196930343114, 1791227501296169696, 
0.5048947930335999, -0.049830079078674316, 0.8860119712491896, 1791227501322889398, 
-0.3171539902687073, 0.23986411094665527, 0.8015710342720228, 1791227501352894554, 
-0.1138961911201477, 0.4014045000076294, 0.7872760819448915, 1791227501382968329, 
-0.17019087076187134, -0.020499467849731445, 0.7695638299496508, 1791227501413012668, 
-0.7825307250022888, -0.13988596200942993, 0.7859974640643045, 1791227501443081858, 
-0.18252843618392944, 0.342883825302124, 0.7760863922349622, 1791227501473193282, 
-0.5100205540657043, 0.13426744937896729, 0.7520150649236379, 1791227501503732179, 
0.6718755960464478, -0.17071902751922607, 0.7499263936923379, 1791227501536055349, 
0.16705292463302612, 0.504584014415741, 0.8820800922133537, 1791227501563551659, 
0.03427600860595703, 0.34324103593826294, 0.7875134842304905, 1791227501593552112, 
-0.7536047101020813, -0.2545210123062134, 0.7938335547011188, 1791227501623497452, 
0.5190151929855347, 0.08764219284057617, 0.8128611072108379, 1791227501653558688, 
0.1629176139831543, 0.37854892015457153, 0.7850688367362118, 1791227501683620452, 
0.17996752262115479, 0.025672435760498047, 0.76567554532934, 1791227501713693535, 
-0.46447908878326416, -0.12865567207336426, 0.7763894623789033, 1791227501744192856, 
-0.058355093002319336, 0.5562059879302979, 0.7640936972864226, 1791227501775780831, 
0.2101617455482483, 0.41532278060913086, 0.7921303460907372, 1791227501806067814, 
0.3762187957763672, 0.10360115766525269, 0.8831445716380908, 1791227501843963582, 
-0.21548676490783691, 0.40025120973587036, 0.8183039165989278, 1791227501874073305, 
-0.31730401515960693, 0.03164815902709961, 0.8021315481306539, 1791227501903215050, 
-0.13247424364089966, -0.4156203269958496, 0.7089675717264968, 1791227501936442518, 
-0.24477285146713257, 0.5368817448616028, 0.8013699523403099, 1791227501966895349, 
-0.1279429793357849, 0.5337318778038025, 0.8852742566694155, 1791227501994384890, 
-0.07154154777526855, 0.11211174726486206, 0.7949142971762555, 1791227502024416814, 
0.20418578386306763, 0.03439688682556152, 0.6728566897777037, 1791227502047753055, 
0.06264322996139526, 0.45842647552490234, 0.8672618414202327, 1791227502084508924, 
0.006026327610015869, 0.4498661756515503, 0.8005157568343524, 1791227502114573433, 
-0.20375794172286987, -0.12350654602050781, 0.8165264160314275, 1791227502143652544, 
0.10720568895339966, 0.10702300071716309, 0.7166828173874139, 1791227502176077207, 
0.0532417893409729, 0.39674752950668335, 0.7343090426644601, 1791227502208110390, 
-0.30181312561035156, 0.06381571292877197, 0.8818082066225631, 1791227502234943713, 
-0.15988439321517944, 0.12340468168258667, 0.7966793193063795, 1791227502264932896, 
0.0329815149307251, 0.26297348737716675, 0.7939657553217577, 1791227502294995798, 
-0.02914881706237793, 0.1891300082206726, 0.791851440745073, 1791227502325019118, 
-0.4543141722679138, 0.041519105434417725, 0.8265857021381462, 1791227502354103108, 
0.37482917308807373, 0.02617168426513672, 0.762411093929847, 1791227502385213117, 
0.047109365463256836, 0.5974602699279785, 0.7579369548285503, 1791227502416098018, 
0.06311827898025513, -0.08378905057907104, 0.7473268414807348, 1791227502448209201, 
-0.1475827693939209, -0.16821283102035522, 0.9183521555426468, 1791227502475472591, 
0.15183252096176147, 0.3978385329246521, 0.8140481282791608, 1791227502505454474, 
-0.41135716438293457, 0.4307914972305298, 0.7860969571705624, 1791227502535505793, 
0.291018009185791, 0.039300620555877686, 0.798359578268755, 1791227502565552786, 
-0.6609042286872864, -0.3908076882362366, 0.8156225181150383, 1791227502595630345, 
-0.0718148946762085, 0.6464434862136841, 0.8025196456099357, 1791227502625768350, 
-0.0753512978553772, 0.5058490037918091, 0.7922202830181683, 1791227502656141834, 
-0.006087303161621094, -0.06914424896240234, 0.7621941929686562, 1791227502688090276, 
-0.3079071640968323, -0.22524285316467285, 0.8709567479675889, 1791227502715971870, 
0.22820287942886353, 0.4189128875732422, 0.8055470479921398, 1791227502745947662, 
-0.05973827838897705, 0.15752404928207397, 0.7981720459510948, 1791227502776012349, 
0.31788283586502075, 0.4772181510925293, 0.7992401918550238, 1791227502806085727, 
-0.26769107580184937, 0.11084562540054321, 0.7896525498241354, 1791227502836178038, 
-0.1386769413948059, -0.08545660972595215, 0.8106653355176934, 1791227502866252418, 
-0.06588512659072876, 0.1868969202041626, 0.8405310244072675, 1791227502896352621, 
0.1611425280570984, 0.4042781591415405, 0.7689506538726792, 1791227502927907518, 
-0.341069757938385, 0.1870945692062378, 0.7182903920544337, 1791227502959458299, 
-0.18949800729751587, 0.03213906288146973, 0.8735574081972876, 1791227502986524343, 
0.256000280380249, 0.06984323263168335, 0.7870049664326018, 1791227503016663711, 
-0.41338586807250977, 0.43380308151245117, 0.7878306121181402, 1791227503045634515, 
-0.14796417951583862, 0.20373976230621338, 0.7324700391332236, 1791227503077516088, 
0.29266417026519775, 0.5638499855995178, 0.7993228685519668, 1791227503137752803, 
-0.20115405321121216, 0.4922199249267578, 0.7868790339703762, 1791227503168167032, 
0.13155996799468994, -0.31690090894699097, 0.718997741706126, 1791227503200756992, 
-0.039276719093322754, 0.22132372856140137, 0.9047039145228082, 1791227503227592538, 
-0.03497046232223511, 0.5967987775802612, 0.7980914862784135, 1791227503257980675, 
-0.31227612495422363, -0.08596557378768921, 0.8315989780561102, 1791227503286636919, 
-0.10625022649765015, -0.3401338458061218, 0.7801191248015488, 1791227503317552606, 
0.07229799032211304, 0.5470322966575623, 0.7813521969575324, 1791227503347838535, 
-0.17497652769088745, 0.584006130695343, 0.7920170974683816, 1791227503377696111, 
-0.17249935865402222, -0.13448059558868408, 0.7841429162358948, 1791227503408359342, 
0.11874020099639893, -0.17539799213409424, 0.7433418849013894, 1791227503441073654, 
0.3452689051628113, 0.4903871417045593, 0.8695460938106662, 1791227503467862191, 
-0.5064367651939392, 0.28976964950561523, 0.7868295651231487, 1791227503497791996, 
-0.021242380142211914, -0.1168748140335083, 0.8264172401749892, 1791227503527808248, 
-0.19293010234832764, 0.2615933418273926, 0.82620909659145, 1791227503557826676, 
0.313365638256073, 0.08103060722351074, 0.7748894561999002, 1791227503587826197, 
-0.4613215923309326, -0.0717921257019043, 0.7920973051644731, 1791227503617943997, 
0.32602524757385254, 0.315024197101593, 0.8305701459270325, 1791227503648005302, 
-0.4922131896018982, 0.4113401770591736, 0.7550888924922876, 1791227503680156419, 
0.10006260871887207, -0.09040689468383789, 0.8210240759783544, 1791227503708134473, 
-0.12770527601242065, -0.027943015098571777, 0.766620340520461, 1791227503738201020, 
-0.005431234836578369, 0.28088051080703735, 0.8138650184554445, 1791227503767206938, 
-0.19976168870925903, 0.416439414024353, 0.7476929192195211, 1791227503798267053, 
0.5615600943565369, 0.03575944900512695, 0.7546829894312653, 1791227503828367270, 
0.10134166479110718, -0.11851900815963745, 0.7714509290366375, 1791227503858450666, 
-0.4707460403442383, 0.45608997344970703, 0.7724935449238574, 1791227503888621304, 
-0.29028743505477905, -0.14466094970703125, 0.7644342066266064, 1791227503919995351, 
0.27582108974456787, 0.1530243158340454, 0.9071298668153767, 1791227503947638600, 
0.34559422731399536, 0.33586394786834717, 0.7862638559607871, 1791227503978720093, 
0.06083458662033081, 0.10405963659286499, 0.8003976603251587, 1791227504008738334, 
-0.20072591304779053, -0.018325984477996826, 0.7993117459991411, 1791227504038827660, 
-0.31872785091400146, 0.4666445851325989, 0.7936346236693689, 1791227504068871644, 
0.10651993751525879, 0.27651894092559814, 0.7959871530935099, 1791227504098974654, 
-0.27415692806243896, -0.4569203853607178, 0.8086372504565289, 1791227504129044182, 
-0.11610788106918335, 0.11813622713088989, 0.781038851533952, 1791227504160051820, 
0.40140998363494873, 0.8288888931274414, 0.7530610588047288, 1791227504192193915, 
0.06595253944396973, 0.30610668659210205, 0.8751024246782045, 1791227504219283684, 
-0.04111886024475098, -0.6597023606300354, 0.7913529341745663, 1791227504249260471, 
-0.10255581140518188, 0.05643284320831299, 0.8022830479886744, 1791227504279354072, 
0.022806942462921143, 0.5609742403030396, 0.8095670383359679, 1791227504309394755, 
-0.07867956161499023, 0.4476647973060608, 0.800513648341515, 1791227504339455604, 
0.24219673871994019, -0.3034381866455078, 0.8038880271462363, 1791227504369531017, 
-0.2075684666633606, 0.10162943601608276, 0.7871759479351303, 1791227504399646378, 
0.23668360710144043, 0.2763141989707947, 0.7330242768869931, 1791227504432025041, 
-0.21122491359710693, 0.3933039903640747, 0.8562710526609071, 1791227504459742314, 
-0.05955737829208374, -0.15674370527267456, 0.7781624473320554, 1791227504489785724, 
-0.2753216028213501, 0.19833803176879883, 0.7898668879604135, 1791227504519868209, 
0.4120672941207886, 0.23881202936172485, 0.7964607035460655, 1791227504549974116, 
0.027642905712127686, 0.01474374532699585, 0.7933534067357263, 1791227504579985038, 
0.1758054494857788, 0.2806468605995178, 0.7857155855419146, 1791227504610082295, 
-0.04366135597229004, 0.0745542049407959, 0.802922617429757, 1791227504640193886, 
0.1976800560951233, -0.03954911231994629, 0.7769434556131355, 1791227504672219500, 
-0.3244430422782898, 0.11890619993209839, 0.8045933316080182, 1791227504702049162, 
0.3188241720199585, 0.2982061505317688, 0.8046980415863361, 1791227504730505785, 
